BEGIN_SCAN_DATA
	FORMAT=CC-Export V1.9                  
	FILE_CREATION_DATE=26-Jul-2022 10:35:22
	LAST_MODIFIED=26-Jul-2022 10:35:22
	BEGIN_SCAN  1
		TASK_NAME=tba PDD Profiles
		PROGRAM=WaterTankScans
		COMMENT=PDD + 5x X
		MEAS_DATE=09-Feb-2021 16:07:32
		LINAC=TRUEBEAMSN4791
		MODALITY=X
		ISOCENTER=1000.00
		INPLANE_AXIS=Y
		CROSSPLANE_AXIS=X
		DEPTH_AXIS=Depth
		INPLANE_AXIS_DIR=TARGET_GUN
		CROSSPLANE_AXIS_DIR=LEFT_RIGHT
		DEPTH_AXIS_DIR=UP_DOWN
		ENERGY=6.00
		NOMINAL_DMAX=15.00
		SSD=900.00
		SCD=450.00
		WEDGE_ANGLE=0.00
		FIELD_INPLANE=100.00
		FIELD_CROSSPLANE=100.00
		FIELD_TYPE=RECTANGULAR
		GANTRY=0.00
		GANTRY_UPRIGHT_POSITION=0
		GANTRY_ROTATION=CW
		COLL_ANGLE=0.00
		COLL_OFFSET_INPLANE=0.00
		COLL_OFFSET_CROSSPLANE=0.00
		SCAN_DEVICE=BeamScan
		SCAN_DEVICE_SETUP=BARA_LEFT_RIGHT
		ELECTROMETER=BeamScan
		RANGE_FIELD=LOW
		RANGE_REFERENCE=MEDIUM
		DETECTOR=THIMBLE_CHAMBER
		DETECTOR_SUBCODE=SEMIFLEX
		DETECTOR_RADIUS=2.40
		DETECTOR_NAME=PTW 31021 Semiflex 3D (1)
		DETECTOR_SN=142316
		DETECTOR_CALIBRATION=588000000.00
		DETECTOR_IS_CALIBRATED=1
		DETECTOR_REFERENCE=THIMBLE_CHAMBER
		DETECTOR_REFERENCE_SUBCODE=SEMIFLEX
		DETECTOR_REFERENCE_RADIUS=2.75
		DETECTOR_REFERENCE_NAME=PTW 31010 Semiflex (1)
		DETECTOR_REFERENCE_SN=Ã¢â‚¬â€
		DETECTOR_REFERENCE_IS_CALIBRATED=0
		DETECTOR_REFERENCE_CALIBRATION=303000000.00
		DETECTOR_HV=400.0
		DETECTOR_REFERENCE_HV=400.0
		DETECTOR_ORIENTATION=HORIZONTAL
		FILTER=FFF
		SCAN_SPEED_PROFILE=12.50
		SCAN_PROF_SPEED_DEP=DEPTH
		SCAN_SPEED_PDD=12.50
		SCAN_PDD_SPEED_DEP=ENERGY
		DETECTOR_TYPE=T31021
		REF_FIELD_DEPTH=100.00
		REF_FIELD_DEFINED=ISOCENTER
		REF_FIELD_INPLANE=100.00
		REF_FIELD_CROSSPLANE=100.00
		REF_SCAN_POSITIONS=-85.00;-84.00;-83.00;-82.00;-81.00;-80.00;-79.00;-78.00;-77.00;-76.00;-75.00;-74.00;-73.00;-72.00;-71.00;-70.00;-69.00;-68.00;-67.00;-66.00;-65.00;-64.00;-63.00;-62.00;-61.00;-60.00;-59.00;-58.00;-57.00;-56.00;-55.00;-54.00;-53.00;-52.00;-51.00;-50.00;-49.00;-48.00;-47.00;-46.00;-45.00;-44.00;-43.00;-42.00;-41.00;-40.00;-39.00;-38.00;-37.00;-36.00;-35.00;-34.00;-33.00;-32.00;-31.00;-30.00;-29.00;-28.00;-27.00;-26.00;-25.00;-24.00;-23.00;-22.00;-21.00;-20.00;-19.00;-18.00;-17.00;-16.00;-15.00;-14.00;-13.00;-12.00;-11.00;-10.00;-9.00;-8.00;-7.00;-6.00;-5.00;-4.00;-3.00;-2.00;-1.00;0.00;1.00;2.00;3.00;4.00;5.00;6.00;7.00;8.00;9.00;10.00;11.00;12.00;13.00;14.00;15.00;16.00;17.00;18.00;19.00;20.00;21.00;22.00;23.00;24.00;25.00;26.00;27.00;28.00;29.00;30.00;31.00;32.00;33.00;34.00;35.00;36.00;37.00;38.00;39.00;40.00;41.00;42.00;43.00;44.00;45.00;46.00;47.00;48.00;49.00;50.00;51.00;52.00;53.00;54.00;55.00;56.00;57.00;58.00;59.00;60.00;61.00;62.00;63.00;64.00;65.00;66.00;67.00;68.00;69.00;70.00;71.00;72.00;73.00;74.00;75.00;76.00;77.00;78.00;79.00;80.00;81.00;82.00;83.00;84.00;85.00;
		REF_OVERSCAN_FACTOR=1.00
		SCAN_CURVETYPE=CROSSPLANE_PROFILE
		SCAN_DEPTH=15.00
		SCAN_OFFAXIS_INPLANE=0.00
		SCAN_OFFAXIS_CROSSPLANE=0.00
		SCAN_ANGLE=0.00
		SCAN_DIAGONAL=NOT_DIAGONAL
		SCAN_DIRECTION=POSITIVE
		MEAS_MEDIUM=WATER
		MEAS_PRESET=MEAS_CONTINUOUS_REFERENCE_SCAN
		MEAS_TIME=0.080
		MEAS_UNIT=A.U.
		INCLINATION_ANGLE=0.00
		PRESSURE=1013.25
		TEMPERATURE=20.00
		NORM_TEMPERATURE=20.00
		CORRECTION_FACTOR=1.0000
		EXPECTED_MAX_DOSE_RATE=3.00
		EPOM_DEPTH_SHIFT=0.2
		EPOM_MODE=SHIFT_PROTOCOL
		CORRECTIONS=SMOOTHED_CORR;SYMMETRY_CORR;INTERPOLATED_CORR;
		BEGIN_DATA
			-78.00		26.902E-03
			-77.50		27.345E-03
			-77.00		27.788E-03
			-76.50		28.134E-03
			-76.00		28.480E-03
			-75.50		28.873E-03
			-75.00		29.266E-03
			-74.50		29.642E-03
			-74.00		30.018E-03
			-73.50		30.414E-03
			-73.00		30.811E-03
			-72.50		31.228E-03
			-72.00		31.645E-03
			-71.50		32.074E-03
			-71.00		32.504E-03
			-70.50		33.037E-03
			-70.00		33.569E-03
			-69.50		34.144E-03
			-69.00		34.718E-03
			-68.50		35.191E-03
			-68.00		35.665E-03
			-67.50		36.254E-03
			-67.00		36.843E-03
			-66.50		37.427E-03
			-66.00		38.012E-03
			-65.50		38.824E-03
			-65.00		39.636E-03
			-64.50		40.467E-03
			-64.00		41.298E-03
			-63.50		42.158E-03
			-63.00		43.018E-03
			-62.50		43.788E-03
			-62.00		44.558E-03
			-61.50		45.647E-03
			-61.00		46.736E-03
			-60.50		47.791E-03
			-60.00		48.847E-03
			-59.50		50.025E-03
			-59.00		51.202E-03
			-58.50		52.460E-03
			-58.00		53.717E-03
			-57.50		55.351E-03
			-57.00		56.985E-03
			-56.50		59.241E-03
			-56.00		61.497E-03
			-55.50		64.053E-03
			-55.00		66.610E-03
			-54.50		69.969E-03
			-54.00		73.328E-03
			-53.50		77.772E-03
			-53.00		82.217E-03
			-52.50		88.642E-03
			-52.00		95.067E-03
			-51.50		105.05E-03
			-51.00		115.04E-03
			-50.50		132.02E-03
			-50.00		149.00E-03
			-49.50		183.28E-03
			-49.00		217.57E-03
			-48.50		283.43E-03
			-48.00		349.30E-03
			-47.50		446.87E-03
			-47.00		544.43E-03
			-46.50		663.26E-03
			-46.00		782.09E-03
			-45.50		907.79E-03
			-45.00		1.0335E+00
			-44.50		1.1449E+00
			-44.00		1.2564E+00
			-43.50		1.3410E+00
			-43.00		1.4257E+00
			-42.50		1.4781E+00
			-42.00		1.5305E+00
			-41.50		1.5593E+00
			-41.00		1.5880E+00
			-40.50		1.6049E+00
			-40.00		1.6219E+00
			-39.50		1.6321E+00
			-39.00		1.6422E+00
			-38.50		1.6507E+00
			-38.00		1.6591E+00
			-37.50		1.6653E+00
			-37.00		1.6716E+00
			-36.50		1.6772E+00
			-36.00		1.6828E+00
			-35.50		1.6880E+00
			-35.00		1.6932E+00
			-34.50		1.6981E+00
			-34.00		1.7029E+00
			-33.50		1.7071E+00
			-33.00		1.7114E+00
			-32.50		1.7153E+00
			-32.00		1.7192E+00
			-31.50		1.7229E+00
			-31.00		1.7265E+00
			-30.50		1.7299E+00
			-30.00		1.7333E+00
			-29.50		1.7364E+00
			-29.00		1.7396E+00
			-28.50		1.7428E+00
			-28.00		1.7460E+00
			-27.50		1.7493E+00
			-27.00		1.7525E+00
			-26.50		1.7557E+00
			-26.00		1.7588E+00
			-25.50		1.7618E+00
			-25.00		1.7648E+00
			-24.50		1.7677E+00
			-24.00		1.7706E+00
			-23.50		1.7732E+00
			-23.00		1.7759E+00
			-22.50		1.7781E+00
			-22.00		1.7803E+00
			-21.50		1.7826E+00
			-21.00		1.7850E+00
			-20.50		1.7877E+00
			-20.00		1.7904E+00
			-19.50		1.7930E+00
			-19.00		1.7956E+00
			-18.50		1.7977E+00
			-18.00		1.7999E+00
			-17.50		1.8019E+00
			-17.00		1.8038E+00
			-16.50		1.8059E+00
			-16.00		1.8079E+00
			-15.50		1.8097E+00
			-15.00		1.8116E+00
			-14.50		1.8133E+00
			-14.00		1.8149E+00
			-13.50		1.8164E+00
			-13.00		1.8180E+00
			-12.50		1.8197E+00
			-12.00		1.8214E+00
			-11.50		1.8231E+00
			-11.00		1.8247E+00
			-10.50		1.8257E+00
			-10.00		1.8268E+00
			-9.50		1.8275E+00
			-9.00		1.8281E+00
			-8.50		1.8287E+00
			-8.00		1.8293E+00
			-7.50		1.8300E+00
			-7.00		1.8308E+00
			-6.50		1.8317E+00
			-6.00		1.8325E+00
			-5.50		1.8334E+00
			-5.00		1.8343E+00
			-4.50		1.8352E+00
			-4.00		1.8361E+00
			-3.50		1.8366E+00
			-3.00		1.8371E+00
			-2.50		1.8372E+00
			-2.00		1.8373E+00
			-1.50		1.8373E+00
			-1.00		1.8373E+00
			-0.50		1.8373E+00
			0.00		1.8374E+00
			0.50		1.8373E+00
			1.00		1.8373E+00
			1.50		1.8373E+00
			2.00		1.8373E+00
			2.50		1.8372E+00
			3.00		1.8371E+00
			3.50		1.8366E+00
			4.00		1.8361E+00
			4.50		1.8352E+00
			5.00		1.8343E+00
			5.50		1.8334E+00
			6.00		1.8325E+00
			6.50		1.8317E+00
			7.00		1.8308E+00
			7.50		1.8300E+00
			8.00		1.8293E+00
			8.50		1.8287E+00
			9.00		1.8281E+00
			9.50		1.8275E+00
			10.00		1.8268E+00
			10.50		1.8257E+00
			11.00		1.8247E+00
			11.50		1.8231E+00
			12.00		1.8214E+00
			12.50		1.8197E+00
			13.00		1.8180E+00
			13.50		1.8164E+00
			14.00		1.8149E+00
			14.50		1.8133E+00
			15.00		1.8116E+00
			15.50		1.8097E+00
			16.00		1.8079E+00
			16.50		1.8059E+00
			17.00		1.8038E+00
			17.50		1.8019E+00
			18.00		1.7999E+00
			18.50		1.7977E+00
			19.00		1.7956E+00
			19.50		1.7930E+00
			20.00		1.7904E+00
			20.50		1.7877E+00
			21.00		1.7850E+00
			21.50		1.7826E+00
			22.00		1.7803E+00
			22.50		1.7781E+00
			23.00		1.7759E+00
			23.50		1.7732E+00
			24.00		1.7706E+00
			24.50		1.7677E+00
			25.00		1.7648E+00
			25.50		1.7618E+00
			26.00		1.7588E+00
			26.50		1.7557E+00
			27.00		1.7525E+00
			27.50		1.7493E+00
			28.00		1.7460E+00
			28.50		1.7428E+00
			29.00		1.7396E+00
			29.50		1.7364E+00
			30.00		1.7333E+00
			30.50		1.7299E+00
			31.00		1.7265E+00
			31.50		1.7229E+00
			32.00		1.7192E+00
			32.50		1.7153E+00
			33.00		1.7114E+00
			33.50		1.7071E+00
			34.00		1.7029E+00
			34.50		1.6981E+00
			35.00		1.6932E+00
			35.50		1.6880E+00
			36.00		1.6828E+00
			36.50		1.6772E+00
			37.00		1.6716E+00
			37.50		1.6653E+00
			38.00		1.6591E+00
			38.50		1.6507E+00
			39.00		1.6422E+00
			39.50		1.6321E+00
			40.00		1.6219E+00
			40.50		1.6049E+00
			41.00		1.5880E+00
			41.50		1.5593E+00
			42.00		1.5305E+00
			42.50		1.4781E+00
			43.00		1.4257E+00
			43.50		1.3410E+00
			44.00		1.2564E+00
			44.50		1.1449E+00
			45.00		1.0335E+00
			45.50		907.79E-03
			46.00		782.09E-03
			46.50		663.26E-03
			47.00		544.43E-03
			47.50		446.87E-03
			48.00		349.30E-03
			48.50		283.43E-03
			49.00		217.57E-03
			49.50		183.28E-03
			50.00		149.00E-03
			50.50		132.02E-03
			51.00		115.04E-03
			51.50		105.05E-03
			52.00		95.067E-03
			52.50		88.642E-03
			53.00		82.217E-03
			53.50		77.772E-03
			54.00		73.328E-03
			54.50		69.969E-03
			55.00		66.610E-03
			55.50		64.053E-03
			56.00		61.497E-03
			56.50		59.241E-03
			57.00		56.985E-03
			57.50		55.351E-03
			58.00		53.717E-03
			58.50		52.460E-03
			59.00		51.202E-03
			59.50		50.025E-03
			60.00		48.847E-03
			60.50		47.791E-03
			61.00		46.736E-03
			61.50		45.647E-03
			62.00		44.558E-03
			62.50		43.788E-03
			63.00		43.018E-03
			63.50		42.158E-03
			64.00		41.298E-03
			64.50		40.467E-03
			65.00		39.636E-03
			65.50		38.824E-03
			66.00		38.012E-03
			66.50		37.427E-03
			67.00		36.843E-03
			67.50		36.254E-03
			68.00		35.665E-03
			68.50		35.191E-03
			69.00		34.718E-03
			69.50		34.144E-03
			70.00		33.569E-03
			70.50		33.037E-03
			71.00		32.504E-03
			71.50		32.074E-03
			72.00		31.645E-03
			72.50		31.228E-03
			73.00		30.811E-03
			73.50		30.414E-03
			74.00		30.018E-03
			74.50		29.642E-03
			75.00		29.266E-03
			75.50		28.873E-03
			76.00		28.480E-03
			76.50		28.134E-03
			77.00		27.788E-03
			77.50		27.345E-03
			78.00		26.902E-03
		END_DATA
	END_SCAN  1
	BEGIN_SCAN  2
		TASK_NAME=tba PDD Profiles
		PROGRAM=WaterTankScans
		COMMENT=PDD + 5x X
		MEAS_DATE=09-Feb-2021 16:07:50
		LINAC=TRUEBEAMSN4791
		MODALITY=X
		ISOCENTER=1000.00
		INPLANE_AXIS=Y
		CROSSPLANE_AXIS=X
		DEPTH_AXIS=Depth
		INPLANE_AXIS_DIR=TARGET_GUN
		CROSSPLANE_AXIS_DIR=LEFT_RIGHT
		DEPTH_AXIS_DIR=UP_DOWN
		ENERGY=6.00
		NOMINAL_DMAX=15.00
		SSD=900.00
		SCD=450.00
		WEDGE_ANGLE=0.00
		FIELD_INPLANE=100.00
		FIELD_CROSSPLANE=100.00
		FIELD_TYPE=RECTANGULAR
		GANTRY=0.00
		GANTRY_UPRIGHT_POSITION=0
		GANTRY_ROTATION=CW
		COLL_ANGLE=0.00
		COLL_OFFSET_INPLANE=0.00
		COLL_OFFSET_CROSSPLANE=0.00
		SCAN_DEVICE=BeamScan
		SCAN_DEVICE_SETUP=BARA_LEFT_RIGHT
		ELECTROMETER=BeamScan
		RANGE_FIELD=LOW
		RANGE_REFERENCE=MEDIUM
		DETECTOR=THIMBLE_CHAMBER
		DETECTOR_SUBCODE=SEMIFLEX
		DETECTOR_RADIUS=2.40
		DETECTOR_NAME=PTW 31021 Semiflex 3D (1)
		DETECTOR_SN=142316
		DETECTOR_CALIBRATION=588000000.00
		DETECTOR_IS_CALIBRATED=1
		DETECTOR_REFERENCE=THIMBLE_CHAMBER
		DETECTOR_REFERENCE_SUBCODE=SEMIFLEX
		DETECTOR_REFERENCE_RADIUS=2.75
		DETECTOR_REFERENCE_NAME=PTW 31010 Semiflex (1)
		DETECTOR_REFERENCE_SN=Ã¢â‚¬â€
		DETECTOR_REFERENCE_IS_CALIBRATED=0
		DETECTOR_REFERENCE_CALIBRATION=303000000.00
		DETECTOR_HV=400.0
		DETECTOR_REFERENCE_HV=400.0
		DETECTOR_ORIENTATION=HORIZONTAL
		FILTER=FFF
		SCAN_SPEED_PROFILE=12.50
		SCAN_PROF_SPEED_DEP=DEPTH
		SCAN_SPEED_PDD=12.50
		SCAN_PDD_SPEED_DEP=ENERGY
		DETECTOR_TYPE=T31021
		REF_FIELD_DEPTH=100.00
		REF_FIELD_DEFINED=ISOCENTER
		REF_FIELD_INPLANE=100.00
		REF_FIELD_CROSSPLANE=100.00
		REF_SCAN_POSITIONS=-85.00;-84.00;-83.00;-82.00;-81.00;-80.00;-79.00;-78.00;-77.00;-76.00;-75.00;-74.00;-73.00;-72.00;-71.00;-70.00;-69.00;-68.00;-67.00;-66.00;-65.00;-64.00;-63.00;-62.00;-61.00;-60.00;-59.00;-58.00;-57.00;-56.00;-55.00;-54.00;-53.00;-52.00;-51.00;-50.00;-49.00;-48.00;-47.00;-46.00;-45.00;-44.00;-43.00;-42.00;-41.00;-40.00;-39.00;-38.00;-37.00;-36.00;-35.00;-34.00;-33.00;-32.00;-31.00;-30.00;-29.00;-28.00;-27.00;-26.00;-25.00;-24.00;-23.00;-22.00;-21.00;-20.00;-19.00;-18.00;-17.00;-16.00;-15.00;-14.00;-13.00;-12.00;-11.00;-10.00;-9.00;-8.00;-7.00;-6.00;-5.00;-4.00;-3.00;-2.00;-1.00;0.00;1.00;2.00;3.00;4.00;5.00;6.00;7.00;8.00;9.00;10.00;11.00;12.00;13.00;14.00;15.00;16.00;17.00;18.00;19.00;20.00;21.00;22.00;23.00;24.00;25.00;26.00;27.00;28.00;29.00;30.00;31.00;32.00;33.00;34.00;35.00;36.00;37.00;38.00;39.00;40.00;41.00;42.00;43.00;44.00;45.00;46.00;47.00;48.00;49.00;50.00;51.00;52.00;53.00;54.00;55.00;56.00;57.00;58.00;59.00;60.00;61.00;62.00;63.00;64.00;65.00;66.00;67.00;68.00;69.00;70.00;71.00;72.00;73.00;74.00;75.00;76.00;77.00;78.00;79.00;80.00;81.00;82.00;83.00;84.00;85.00;
		REF_OVERSCAN_FACTOR=1.00
		SCAN_CURVETYPE=CROSSPLANE_PROFILE
		SCAN_DEPTH=50.00
		SCAN_OFFAXIS_INPLANE=0.00
		SCAN_OFFAXIS_CROSSPLANE=0.00
		SCAN_ANGLE=0.00
		SCAN_DIAGONAL=NOT_DIAGONAL
		SCAN_DIRECTION=NEGATIVE
		MEAS_MEDIUM=WATER
		MEAS_PRESET=MEAS_CONTINUOUS_REFERENCE_SCAN
		MEAS_TIME=0.080
		MEAS_UNIT=A.U.
		INCLINATION_ANGLE=0.00
		PRESSURE=1013.25
		TEMPERATURE=20.00
		NORM_TEMPERATURE=20.00
		CORRECTION_FACTOR=1.0000
		EXPECTED_MAX_DOSE_RATE=3.00
		EPOM_DEPTH_SHIFT=0.2
		EPOM_MODE=SHIFT_PROTOCOL
		CORRECTIONS=SMOOTHED_CORR;SYMMETRY_CORR;INTERPOLATED_CORR;
		BEGIN_DATA
			-81.00		35.795E-03
			-80.50		36.470E-03
			-80.00		37.145E-03
			-79.50		37.663E-03
			-79.00		38.181E-03
			-78.50		38.799E-03
			-78.00		39.417E-03
			-77.50		39.958E-03
			-77.00		40.498E-03
			-76.50		41.123E-03
			-76.00		41.748E-03
			-75.50		42.401E-03
			-75.00		43.053E-03
			-74.50		43.854E-03
			-74.00		44.655E-03
			-73.50		45.287E-03
			-73.00		45.920E-03
			-72.50		46.717E-03
			-72.00		47.513E-03
			-71.50		48.356E-03
			-71.00		49.199E-03
			-70.50		50.111E-03
			-70.00		51.022E-03
			-69.50		52.007E-03
			-69.00		52.992E-03
			-68.50		53.923E-03
			-68.00		54.853E-03
			-67.50		56.071E-03
			-67.00		57.289E-03
			-66.50		58.514E-03
			-66.00		59.740E-03
			-65.50		60.906E-03
			-65.00		62.071E-03
			-64.50		63.486E-03
			-64.00		64.900E-03
			-63.50		66.390E-03
			-63.00		67.881E-03
			-62.50		69.623E-03
			-62.00		71.364E-03
			-61.50		72.949E-03
			-61.00		74.534E-03
			-60.50		76.566E-03
			-60.00		78.597E-03
			-59.50		80.617E-03
			-59.00		82.636E-03
			-58.50		85.184E-03
			-58.00		87.731E-03
			-57.50		90.659E-03
			-57.00		93.586E-03
			-56.50		97.188E-03
			-56.00		100.79E-03
			-55.50		105.42E-03
			-55.00		110.04E-03
			-54.50		116.11E-03
			-54.00		122.18E-03
			-53.50		131.02E-03
			-53.00		139.86E-03
			-52.50		153.41E-03
			-52.00		166.95E-03
			-51.50		191.62E-03
			-51.00		216.28E-03
			-50.50		261.57E-03
			-50.00		306.86E-03
			-49.50		375.69E-03
			-49.00		444.53E-03
			-48.50		531.69E-03
			-48.00		618.85E-03
			-47.50		714.99E-03
			-47.00		811.13E-03
			-46.50		899.65E-03
			-46.00		988.18E-03
			-45.50		1.0601E+00
			-45.00		1.1321E+00
			-44.50		1.1807E+00
			-44.00		1.2293E+00
			-43.50		1.2569E+00
			-43.00		1.2845E+00
			-42.50		1.3009E+00
			-42.00		1.3173E+00
			-41.50		1.3295E+00
			-41.00		1.3417E+00
			-40.50		1.3497E+00
			-40.00		1.3577E+00
			-39.50		1.3644E+00
			-39.00		1.3712E+00
			-38.50		1.3766E+00
			-38.00		1.3821E+00
			-37.50		1.3872E+00
			-37.00		1.3924E+00
			-36.50		1.3970E+00
			-36.00		1.4016E+00
			-35.50		1.4056E+00
			-35.00		1.4096E+00
			-34.50		1.4135E+00
			-34.00		1.4174E+00
			-33.50		1.4214E+00
			-33.00		1.4253E+00
			-32.50		1.4290E+00
			-32.00		1.4328E+00
			-31.50		1.4362E+00
			-31.00		1.4397E+00
			-30.50		1.4428E+00
			-30.00		1.4459E+00
			-29.50		1.4487E+00
			-29.00		1.4514E+00
			-28.50		1.4543E+00
			-28.00		1.4571E+00
			-27.50		1.4601E+00
			-27.00		1.4631E+00
			-26.50		1.4660E+00
			-26.00		1.4688E+00
			-25.50		1.4714E+00
			-25.00		1.4741E+00
			-24.50		1.4772E+00
			-24.00		1.4804E+00
			-23.50		1.4832E+00
			-23.00		1.4859E+00
			-22.50		1.4878E+00
			-22.00		1.4897E+00
			-21.50		1.4916E+00
			-21.00		1.4936E+00
			-20.50		1.4958E+00
			-20.00		1.4980E+00
			-19.50		1.5002E+00
			-19.00		1.5024E+00
			-18.50		1.5044E+00
			-18.00		1.5064E+00
			-17.50		1.5086E+00
			-17.00		1.5108E+00
			-16.50		1.5128E+00
			-16.00		1.5148E+00
			-15.50		1.5163E+00
			-15.00		1.5178E+00
			-14.50		1.5192E+00
			-14.00		1.5206E+00
			-13.50		1.5218E+00
			-13.00		1.5231E+00
			-12.50		1.5240E+00
			-12.00		1.5250E+00
			-11.50		1.5257E+00
			-11.00		1.5263E+00
			-10.50		1.5271E+00
			-10.00		1.5280E+00
			-9.50		1.5293E+00
			-9.00		1.5305E+00
			-8.50		1.5318E+00
			-8.00		1.5331E+00
			-7.50		1.5340E+00
			-7.00		1.5349E+00
			-6.50		1.5351E+00
			-6.00		1.5353E+00
			-5.50		1.5357E+00
			-5.00		1.5361E+00
			-4.50		1.5370E+00
			-4.00		1.5379E+00
			-3.50		1.5385E+00
			-3.00		1.5391E+00
			-2.50		1.5391E+00
			-2.00		1.5391E+00
			-1.50		1.5388E+00
			-1.00		1.5385E+00
			-0.50		1.5383E+00
			0.00		1.5382E+00
			0.50		1.5383E+00
			1.00		1.5385E+00
			1.50		1.5388E+00
			2.00		1.5391E+00
			2.50		1.5391E+00
			3.00		1.5391E+00
			3.50		1.5385E+00
			4.00		1.5379E+00
			4.50		1.5370E+00
			5.00		1.5361E+00
			5.50		1.5357E+00
			6.00		1.5353E+00
			6.50		1.5351E+00
			7.00		1.5349E+00
			7.50		1.5340E+00
			8.00		1.5331E+00
			8.50		1.5318E+00
			9.00		1.5305E+00
			9.50		1.5293E+00
			10.00		1.5280E+00
			10.50		1.5271E+00
			11.00		1.5263E+00
			11.50		1.5257E+00
			12.00		1.5250E+00
			12.50		1.5240E+00
			13.00		1.5231E+00
			13.50		1.5218E+00
			14.00		1.5206E+00
			14.50		1.5192E+00
			15.00		1.5178E+00
			15.50		1.5163E+00
			16.00		1.5148E+00
			16.50		1.5128E+00
			17.00		1.5108E+00
			17.50		1.5086E+00
			18.00		1.5064E+00
			18.50		1.5044E+00
			19.00		1.5024E+00
			19.50		1.5002E+00
			20.00		1.4980E+00
			20.50		1.4958E+00
			21.00		1.4936E+00
			21.50		1.4916E+00
			22.00		1.4897E+00
			22.50		1.4878E+00
			23.00		1.4859E+00
			23.50		1.4832E+00
			24.00		1.4804E+00
			24.50		1.4772E+00
			25.00		1.4741E+00
			25.50		1.4714E+00
			26.00		1.4688E+00
			26.50		1.4660E+00
			27.00		1.4631E+00
			27.50		1.4601E+00
			28.00		1.4571E+00
			28.50		1.4543E+00
			29.00		1.4514E+00
			29.50		1.4487E+00
			30.00		1.4459E+00
			30.50		1.4428E+00
			31.00		1.4397E+00
			31.50		1.4362E+00
			32.00		1.4328E+00
			32.50		1.4290E+00
			33.00		1.4253E+00
			33.50		1.4214E+00
			34.00		1.4174E+00
			34.50		1.4135E+00
			35.00		1.4096E+00
			35.50		1.4056E+00
			36.00		1.4016E+00
			36.50		1.3970E+00
			37.00		1.3924E+00
			37.50		1.3872E+00
			38.00		1.3821E+00
			38.50		1.3766E+00
			39.00		1.3712E+00
			39.50		1.3644E+00
			40.00		1.3577E+00
			40.50		1.3497E+00
			41.00		1.3417E+00
			41.50		1.3295E+00
			42.00		1.3173E+00
			42.50		1.3009E+00
			43.00		1.2845E+00
			43.50		1.2569E+00
			44.00		1.2293E+00
			44.50		1.1807E+00
			45.00		1.1321E+00
			45.50		1.0601E+00
			46.00		988.18E-03
			46.50		899.65E-03
			47.00		811.13E-03
			47.50		714.99E-03
			48.00		618.85E-03
			48.50		531.69E-03
			49.00		444.53E-03
			49.50		375.69E-03
			50.00		306.86E-03
			50.50		261.57E-03
			51.00		216.28E-03
			51.50		191.62E-03
			52.00		166.95E-03
			52.50		153.41E-03
			53.00		139.86E-03
			53.50		131.02E-03
			54.00		122.18E-03
			54.50		116.11E-03
			55.00		110.04E-03
			55.50		105.42E-03
			56.00		100.79E-03
			56.50		97.188E-03
			57.00		93.586E-03
			57.50		90.659E-03
			58.00		87.731E-03
			58.50		85.184E-03
			59.00		82.636E-03
			59.50		80.617E-03
			60.00		78.597E-03
			60.50		76.566E-03
			61.00		74.534E-03
			61.50		72.949E-03
			62.00		71.364E-03
			62.50		69.623E-03
			63.00		67.881E-03
			63.50		66.390E-03
			64.00		64.900E-03
			64.50		63.486E-03
			65.00		62.071E-03
			65.50		60.906E-03
			66.00		59.740E-03
			66.50		58.514E-03
			67.00		57.289E-03
			67.50		56.071E-03
			68.00		54.853E-03
			68.50		53.923E-03
			69.00		52.992E-03
			69.50		52.007E-03
			70.00		51.022E-03
			70.50		50.111E-03
			71.00		49.199E-03
			71.50		48.356E-03
			72.00		47.513E-03
			72.50		46.717E-03
			73.00		45.920E-03
			73.50		45.287E-03
			74.00		44.655E-03
			74.50		43.854E-03
			75.00		43.053E-03
			75.50		42.401E-03
			76.00		41.748E-03
			76.50		41.123E-03
			77.00		40.498E-03
			77.50		39.958E-03
			78.00		39.417E-03
			78.50		38.799E-03
			79.00		38.181E-03
			79.50		37.663E-03
			80.00		37.145E-03
			80.50		36.470E-03
			81.00		35.795E-03
		END_DATA
	END_SCAN  2
	BEGIN_SCAN  3
		TASK_NAME=tba PDD Profiles
		PROGRAM=WaterTankScans
		COMMENT=PDD + 5x X
		MEAS_DATE=09-Feb-2021 16:08:06
		LINAC=TRUEBEAMSN4791
		MODALITY=X
		ISOCENTER=1000.00
		INPLANE_AXIS=Y
		CROSSPLANE_AXIS=X
		DEPTH_AXIS=Depth
		INPLANE_AXIS_DIR=TARGET_GUN
		CROSSPLANE_AXIS_DIR=LEFT_RIGHT
		DEPTH_AXIS_DIR=UP_DOWN
		ENERGY=6.00
		NOMINAL_DMAX=15.00
		SSD=900.00
		SCD=450.00
		WEDGE_ANGLE=0.00
		FIELD_INPLANE=100.00
		FIELD_CROSSPLANE=100.00
		FIELD_TYPE=RECTANGULAR
		GANTRY=0.00
		GANTRY_UPRIGHT_POSITION=0
		GANTRY_ROTATION=CW
		COLL_ANGLE=0.00
		COLL_OFFSET_INPLANE=0.00
		COLL_OFFSET_CROSSPLANE=0.00
		SCAN_DEVICE=BeamScan
		SCAN_DEVICE_SETUP=BARA_LEFT_RIGHT
		ELECTROMETER=BeamScan
		RANGE_FIELD=LOW
		RANGE_REFERENCE=MEDIUM
		DETECTOR=THIMBLE_CHAMBER
		DETECTOR_SUBCODE=SEMIFLEX
		DETECTOR_RADIUS=2.40
		DETECTOR_NAME=PTW 31021 Semiflex 3D (1)
		DETECTOR_SN=142316
		DETECTOR_CALIBRATION=588000000.00
		DETECTOR_IS_CALIBRATED=1
		DETECTOR_REFERENCE=THIMBLE_CHAMBER
		DETECTOR_REFERENCE_SUBCODE=SEMIFLEX
		DETECTOR_REFERENCE_RADIUS=2.75
		DETECTOR_REFERENCE_NAME=PTW 31010 Semiflex (1)
		DETECTOR_REFERENCE_SN=Ã¢â‚¬â€
		DETECTOR_REFERENCE_IS_CALIBRATED=0
		DETECTOR_REFERENCE_CALIBRATION=303000000.00
		DETECTOR_HV=400.0
		DETECTOR_REFERENCE_HV=400.0
		DETECTOR_ORIENTATION=HORIZONTAL
		FILTER=FFF
		SCAN_SPEED_PROFILE=12.50
		SCAN_PROF_SPEED_DEP=DEPTH
		SCAN_SPEED_PDD=12.50
		SCAN_PDD_SPEED_DEP=ENERGY
		DETECTOR_TYPE=T31021
		REF_FIELD_DEPTH=100.00
		REF_FIELD_DEFINED=ISOCENTER
		REF_FIELD_INPLANE=100.00
		REF_FIELD_CROSSPLANE=100.00
		REF_SCAN_POSITIONS=-85.00;-84.00;-83.00;-82.00;-81.00;-80.00;-79.00;-78.00;-77.00;-76.00;-75.00;-74.00;-73.00;-72.00;-71.00;-70.00;-69.00;-68.00;-67.00;-66.00;-65.00;-64.00;-63.00;-62.00;-61.00;-60.00;-59.00;-58.00;-57.00;-56.00;-55.00;-54.00;-53.00;-52.00;-51.00;-50.00;-49.00;-48.00;-47.00;-46.00;-45.00;-44.00;-43.00;-42.00;-41.00;-40.00;-39.00;-38.00;-37.00;-36.00;-35.00;-34.00;-33.00;-32.00;-31.00;-30.00;-29.00;-28.00;-27.00;-26.00;-25.00;-24.00;-23.00;-22.00;-21.00;-20.00;-19.00;-18.00;-17.00;-16.00;-15.00;-14.00;-13.00;-12.00;-11.00;-10.00;-9.00;-8.00;-7.00;-6.00;-5.00;-4.00;-3.00;-2.00;-1.00;0.00;1.00;2.00;3.00;4.00;5.00;6.00;7.00;8.00;9.00;10.00;11.00;12.00;13.00;14.00;15.00;16.00;17.00;18.00;19.00;20.00;21.00;22.00;23.00;24.00;25.00;26.00;27.00;28.00;29.00;30.00;31.00;32.00;33.00;34.00;35.00;36.00;37.00;38.00;39.00;40.00;41.00;42.00;43.00;44.00;45.00;46.00;47.00;48.00;49.00;50.00;51.00;52.00;53.00;54.00;55.00;56.00;57.00;58.00;59.00;60.00;61.00;62.00;63.00;64.00;65.00;66.00;67.00;68.00;69.00;70.00;71.00;72.00;73.00;74.00;75.00;76.00;77.00;78.00;79.00;80.00;81.00;82.00;83.00;84.00;85.00;
		REF_OVERSCAN_FACTOR=1.00
		SCAN_CURVETYPE=CROSSPLANE_PROFILE
		SCAN_DEPTH=100.00
		SCAN_OFFAXIS_INPLANE=0.00
		SCAN_OFFAXIS_CROSSPLANE=0.00
		SCAN_ANGLE=0.00
		SCAN_DIAGONAL=NOT_DIAGONAL
		SCAN_DIRECTION=POSITIVE
		MEAS_MEDIUM=WATER
		MEAS_PRESET=MEAS_CONTINUOUS_REFERENCE_SCAN
		MEAS_TIME=0.080
		MEAS_UNIT=A.U.
		INCLINATION_ANGLE=0.00
		PRESSURE=1013.25
		TEMPERATURE=20.00
		NORM_TEMPERATURE=20.00
		CORRECTION_FACTOR=1.0000
		EXPECTED_MAX_DOSE_RATE=3.00
		EPOM_DEPTH_SHIFT=0.2
		EPOM_MODE=SHIFT_PROTOCOL
		CORRECTIONS=SMOOTHED_CORR;SYMMETRY_CORR;INTERPOLATED_CORR;
		BEGIN_DATA
			-85.00		43.553E-03
			-84.50		43.998E-03
			-84.00		44.443E-03
			-83.50		45.251E-03
			-83.00		46.060E-03
			-82.50		46.654E-03
			-82.00		47.247E-03
			-81.50		48.001E-03
			-81.00		48.756E-03
			-80.50		49.401E-03
			-80.00		50.047E-03
			-79.50		50.748E-03
			-79.00		51.450E-03
			-78.50		52.137E-03
			-78.00		52.824E-03
			-77.50		53.465E-03
			-77.00		54.105E-03
			-76.50		55.271E-03
			-76.00		56.437E-03
			-75.50		57.220E-03
			-75.00		58.003E-03
			-74.50		58.867E-03
			-74.00		59.730E-03
			-73.50		60.708E-03
			-73.00		61.685E-03
			-72.50		62.669E-03
			-72.00		63.652E-03
			-71.50		64.930E-03
			-71.00		66.207E-03
			-70.50		67.236E-03
			-70.00		68.265E-03
			-69.50		69.503E-03
			-69.00		70.740E-03
			-68.50		72.194E-03
			-68.00		73.648E-03
			-67.50		74.935E-03
			-67.00		76.223E-03
			-66.50		77.676E-03
			-66.00		79.129E-03
			-65.50		80.591E-03
			-65.00		82.054E-03
			-64.50		83.596E-03
			-64.00		85.138E-03
			-63.50		86.727E-03
			-63.00		88.317E-03
			-62.50		90.236E-03
			-62.00		92.154E-03
			-61.50		94.216E-03
			-61.00		96.278E-03
			-60.50		98.799E-03
			-60.00		101.32E-03
			-59.50		104.22E-03
			-59.00		107.12E-03
			-58.50		110.50E-03
			-58.00		113.88E-03
			-57.50		117.89E-03
			-57.00		121.90E-03
			-56.50		127.76E-03
			-56.00		133.61E-03
			-55.50		142.01E-03
			-55.00		150.42E-03
			-54.50		164.17E-03
			-54.00		177.92E-03
			-53.50		202.24E-03
			-53.00		226.56E-03
			-52.50		266.16E-03
			-52.00		305.76E-03
			-51.50		358.97E-03
			-51.00		412.18E-03
			-50.50		474.88E-03
			-50.00		537.58E-03
			-49.50		600.11E-03
			-49.00		662.63E-03
			-48.50		717.97E-03
			-48.00		773.30E-03
			-47.50		815.80E-03
			-47.00		858.29E-03
			-46.50		884.75E-03
			-46.00		911.21E-03
			-45.50		927.99E-03
			-45.00		944.76E-03
			-44.50		954.31E-03
			-44.00		963.86E-03
			-43.50		971.14E-03
			-43.00		978.43E-03
			-42.50		983.88E-03
			-42.00		989.33E-03
			-41.50		994.27E-03
			-41.00		999.22E-03
			-40.50		1.0040E+00
			-40.00		1.0087E+00
			-39.50		1.0128E+00
			-39.00		1.0169E+00
			-38.50		1.0203E+00
			-38.00		1.0237E+00
			-37.50		1.0266E+00
			-37.00		1.0296E+00
			-36.50		1.0326E+00
			-36.00		1.0356E+00
			-35.50		1.0387E+00
			-35.00		1.0417E+00
			-34.50		1.0446E+00
			-34.00		1.0475E+00
			-33.50		1.0502E+00
			-33.00		1.0528E+00
			-32.50		1.0554E+00
			-32.00		1.0581E+00
			-31.50		1.0606E+00
			-31.00		1.0632E+00
			-30.50		1.0656E+00
			-30.00		1.0680E+00
			-29.50		1.0702E+00
			-29.00		1.0724E+00
			-28.50		1.0745E+00
			-28.00		1.0767E+00
			-27.50		1.0788E+00
			-27.00		1.0809E+00
			-26.50		1.0831E+00
			-26.00		1.0852E+00
			-25.50		1.0873E+00
			-25.00		1.0894E+00
			-24.50		1.0914E+00
			-24.00		1.0933E+00
			-23.50		1.0951E+00
			-23.00		1.0970E+00
			-22.50		1.0987E+00
			-22.00		1.1005E+00
			-21.50		1.1021E+00
			-21.00		1.1036E+00
			-20.50		1.1053E+00
			-20.00		1.1070E+00
			-19.50		1.1086E+00
			-19.00		1.1102E+00
			-18.50		1.1116E+00
			-18.00		1.1129E+00
			-17.50		1.1142E+00
			-17.00		1.1154E+00
			-16.50		1.1166E+00
			-16.00		1.1179E+00
			-15.50		1.1191E+00
			-15.00		1.1202E+00
			-14.50		1.1211E+00
			-14.00		1.1219E+00
			-13.50		1.1229E+00
			-13.00		1.1240E+00
			-12.50		1.1251E+00
			-12.00		1.1262E+00
			-11.50		1.1272E+00
			-11.00		1.1281E+00
			-10.50		1.1290E+00
			-10.00		1.1299E+00
			-9.50		1.1308E+00
			-9.00		1.1317E+00
			-8.50		1.1326E+00
			-8.00		1.1334E+00
			-7.50		1.1339E+00
			-7.00		1.1344E+00
			-6.50		1.1347E+00
			-6.00		1.1350E+00
			-5.50		1.1353E+00
			-5.00		1.1356E+00
			-4.50		1.1358E+00
			-4.00		1.1361E+00
			-3.50		1.1365E+00
			-3.00		1.1368E+00
			-2.50		1.1372E+00
			-2.00		1.1377E+00
			-1.50		1.1380E+00
			-1.00		1.1383E+00
			-0.50		1.1384E+00
			0.00		1.1385E+00
			0.50		1.1384E+00
			1.00		1.1383E+00
			1.50		1.1380E+00
			2.00		1.1377E+00
			2.50		1.1372E+00
			3.00		1.1368E+00
			3.50		1.1365E+00
			4.00		1.1361E+00
			4.50		1.1358E+00
			5.00		1.1356E+00
			5.50		1.1353E+00
			6.00		1.1350E+00
			6.50		1.1347E+00
			7.00		1.1344E+00
			7.50		1.1339E+00
			8.00		1.1334E+00
			8.50		1.1326E+00
			9.00		1.1317E+00
			9.50		1.1308E+00
			10.00		1.1299E+00
			10.50		1.1290E+00
			11.00		1.1281E+00
			11.50		1.1272E+00
			12.00		1.1262E+00
			12.50		1.1251E+00
			13.00		1.1240E+00
			13.50		1.1229E+00
			14.00		1.1219E+00
			14.50		1.1211E+00
			15.00		1.1202E+00
			15.50		1.1191E+00
			16.00		1.1179E+00
			16.50		1.1166E+00
			17.00		1.1154E+00
			17.50		1.1142E+00
			18.00		1.1129E+00
			18.50		1.1116E+00
			19.00		1.1102E+00
			19.50		1.1086E+00
			20.00		1.1070E+00
			20.50		1.1053E+00
			21.00		1.1036E+00
			21.50		1.1021E+00
			22.00		1.1005E+00
			22.50		1.0987E+00
			23.00		1.0970E+00
			23.50		1.0951E+00
			24.00		1.0933E+00
			24.50		1.0914E+00
			25.00		1.0894E+00
			25.50		1.0873E+00
			26.00		1.0852E+00
			26.50		1.0831E+00
			27.00		1.0809E+00
			27.50		1.0788E+00
			28.00		1.0767E+00
			28.50		1.0745E+00
			29.00		1.0724E+00
			29.50		1.0702E+00
			30.00		1.0680E+00
			30.50		1.0656E+00
			31.00		1.0632E+00
			31.50		1.0606E+00
			32.00		1.0581E+00
			32.50		1.0554E+00
			33.00		1.0528E+00
			33.50		1.0502E+00
			34.00		1.0475E+00
			34.50		1.0446E+00
			35.00		1.0417E+00
			35.50		1.0387E+00
			36.00		1.0356E+00
			36.50		1.0326E+00
			37.00		1.0296E+00
			37.50		1.0266E+00
			38.00		1.0237E+00
			38.50		1.0203E+00
			39.00		1.0169E+00
			39.50		1.0128E+00
			40.00		1.0087E+00
			40.50		1.0040E+00
			41.00		999.22E-03
			41.50		994.27E-03
			42.00		989.33E-03
			42.50		983.88E-03
			43.00		978.43E-03
			43.50		971.14E-03
			44.00		963.86E-03
			44.50		954.31E-03
			45.00		944.76E-03
			45.50		927.99E-03
			46.00		911.21E-03
			46.50		884.75E-03
			47.00		858.29E-03
			47.50		815.80E-03
			48.00		773.30E-03
			48.50		717.97E-03
			49.00		662.63E-03
			49.50		600.11E-03
			50.00		537.58E-03
			50.50		474.88E-03
			51.00		412.18E-03
			51.50		358.97E-03
			52.00		305.76E-03
			52.50		266.16E-03
			53.00		226.56E-03
			53.50		202.24E-03
			54.00		177.92E-03
			54.50		164.17E-03
			55.00		150.42E-03
			55.50		142.01E-03
			56.00		133.61E-03
			56.50		127.76E-03
			57.00		121.90E-03
			57.50		117.89E-03
			58.00		113.88E-03
			58.50		110.50E-03
			59.00		107.12E-03
			59.50		104.22E-03
			60.00		101.32E-03
			60.50		98.799E-03
			61.00		96.278E-03
			61.50		94.216E-03
			62.00		92.154E-03
			62.50		90.236E-03
			63.00		88.317E-03
			63.50		86.727E-03
			64.00		85.138E-03
			64.50		83.596E-03
			65.00		82.054E-03
			65.50		80.591E-03
			66.00		79.129E-03
			66.50		77.676E-03
			67.00		76.223E-03
			67.50		74.935E-03
			68.00		73.648E-03
			68.50		72.194E-03
			69.00		70.740E-03
			69.50		69.503E-03
			70.00		68.265E-03
			70.50		67.236E-03
			71.00		66.207E-03
			71.50		64.930E-03
			72.00		63.652E-03
			72.50		62.669E-03
			73.00		61.685E-03
			73.50		60.708E-03
			74.00		59.730E-03
			74.50		58.867E-03
			75.00		58.003E-03
			75.50		57.220E-03
			76.00		56.437E-03
			76.50		55.271E-03
			77.00		54.105E-03
			77.50		53.465E-03
			78.00		52.824E-03
			78.50		52.137E-03
			79.00		51.450E-03
			79.50		50.748E-03
			80.00		50.047E-03
			80.50		49.401E-03
			81.00		48.756E-03
			81.50		48.001E-03
			82.00		47.247E-03
			82.50		46.654E-03
			83.00		46.060E-03
			83.50		45.251E-03
			84.00		44.443E-03
			84.50		43.998E-03
			85.00		43.553E-03
		END_DATA
	END_SCAN  3
	BEGIN_SCAN  4
		TASK_NAME=tba PDD Profiles
		PROGRAM=WaterTankScans
		COMMENT=PDD + 5x X
		MEAS_DATE=09-Feb-2021 16:08:24
		LINAC=TRUEBEAMSN4791
		MODALITY=X
		ISOCENTER=1000.00
		INPLANE_AXIS=Y
		CROSSPLANE_AXIS=X
		DEPTH_AXIS=Depth
		INPLANE_AXIS_DIR=TARGET_GUN
		CROSSPLANE_AXIS_DIR=LEFT_RIGHT
		DEPTH_AXIS_DIR=UP_DOWN
		ENERGY=6.00
		NOMINAL_DMAX=15.00
		SSD=900.00
		SCD=450.00
		WEDGE_ANGLE=0.00
		FIELD_INPLANE=100.00
		FIELD_CROSSPLANE=100.00
		FIELD_TYPE=RECTANGULAR
		GANTRY=0.00
		GANTRY_UPRIGHT_POSITION=0
		GANTRY_ROTATION=CW
		COLL_ANGLE=0.00
		COLL_OFFSET_INPLANE=0.00
		COLL_OFFSET_CROSSPLANE=0.00
		SCAN_DEVICE=BeamScan
		SCAN_DEVICE_SETUP=BARA_LEFT_RIGHT
		ELECTROMETER=BeamScan
		RANGE_FIELD=LOW
		RANGE_REFERENCE=MEDIUM
		DETECTOR=THIMBLE_CHAMBER
		DETECTOR_SUBCODE=SEMIFLEX
		DETECTOR_RADIUS=2.40
		DETECTOR_NAME=PTW 31021 Semiflex 3D (1)
		DETECTOR_SN=142316
		DETECTOR_CALIBRATION=588000000.00
		DETECTOR_IS_CALIBRATED=1
		DETECTOR_REFERENCE=THIMBLE_CHAMBER
		DETECTOR_REFERENCE_SUBCODE=SEMIFLEX
		DETECTOR_REFERENCE_RADIUS=2.75
		DETECTOR_REFERENCE_NAME=PTW 31010 Semiflex (1)
		DETECTOR_REFERENCE_SN=Ã¢â‚¬â€
		DETECTOR_REFERENCE_IS_CALIBRATED=0
		DETECTOR_REFERENCE_CALIBRATION=303000000.00
		DETECTOR_HV=400.0
		DETECTOR_REFERENCE_HV=400.0
		DETECTOR_ORIENTATION=HORIZONTAL
		FILTER=FFF
		SCAN_SPEED_PROFILE=12.50
		SCAN_PROF_SPEED_DEP=DEPTH
		SCAN_SPEED_PDD=12.50
		SCAN_PDD_SPEED_DEP=ENERGY
		DETECTOR_TYPE=T31021
		REF_FIELD_DEPTH=100.00
		REF_FIELD_DEFINED=ISOCENTER
		REF_FIELD_INPLANE=100.00
		REF_FIELD_CROSSPLANE=100.00
		REF_SCAN_POSITIONS=-85.00;-84.00;-83.00;-82.00;-81.00;-80.00;-79.00;-78.00;-77.00;-76.00;-75.00;-74.00;-73.00;-72.00;-71.00;-70.00;-69.00;-68.00;-67.00;-66.00;-65.00;-64.00;-63.00;-62.00;-61.00;-60.00;-59.00;-58.00;-57.00;-56.00;-55.00;-54.00;-53.00;-52.00;-51.00;-50.00;-49.00;-48.00;-47.00;-46.00;-45.00;-44.00;-43.00;-42.00;-41.00;-40.00;-39.00;-38.00;-37.00;-36.00;-35.00;-34.00;-33.00;-32.00;-31.00;-30.00;-29.00;-28.00;-27.00;-26.00;-25.00;-24.00;-23.00;-22.00;-21.00;-20.00;-19.00;-18.00;-17.00;-16.00;-15.00;-14.00;-13.00;-12.00;-11.00;-10.00;-9.00;-8.00;-7.00;-6.00;-5.00;-4.00;-3.00;-2.00;-1.00;0.00;1.00;2.00;3.00;4.00;5.00;6.00;7.00;8.00;9.00;10.00;11.00;12.00;13.00;14.00;15.00;16.00;17.00;18.00;19.00;20.00;21.00;22.00;23.00;24.00;25.00;26.00;27.00;28.00;29.00;30.00;31.00;32.00;33.00;34.00;35.00;36.00;37.00;38.00;39.00;40.00;41.00;42.00;43.00;44.00;45.00;46.00;47.00;48.00;49.00;50.00;51.00;52.00;53.00;54.00;55.00;56.00;57.00;58.00;59.00;60.00;61.00;62.00;63.00;64.00;65.00;66.00;67.00;68.00;69.00;70.00;71.00;72.00;73.00;74.00;75.00;76.00;77.00;78.00;79.00;80.00;81.00;82.00;83.00;84.00;85.00;
		REF_OVERSCAN_FACTOR=1.00
		SCAN_CURVETYPE=CROSSPLANE_PROFILE
		SCAN_DEPTH=200.00
		SCAN_OFFAXIS_INPLANE=0.00
		SCAN_OFFAXIS_CROSSPLANE=0.00
		SCAN_ANGLE=0.00
		SCAN_DIAGONAL=NOT_DIAGONAL
		SCAN_DIRECTION=NEGATIVE
		MEAS_MEDIUM=WATER
		MEAS_PRESET=MEAS_CONTINUOUS_REFERENCE_SCAN
		MEAS_TIME=0.080
		MEAS_UNIT=A.U.
		INCLINATION_ANGLE=0.00
		PRESSURE=1013.25
		TEMPERATURE=20.00
		NORM_TEMPERATURE=20.00
		CORRECTION_FACTOR=1.0000
		EXPECTED_MAX_DOSE_RATE=3.00
		EPOM_DEPTH_SHIFT=0.2
		EPOM_MODE=SHIFT_PROTOCOL
		CORRECTIONS=SMOOTHED_CORR;SYMMETRY_CORR;INTERPOLATED_CORR;
		BEGIN_DATA
			-94.00		36.976E-03
			-93.50		37.291E-03
			-93.00		37.607E-03
			-92.50		38.098E-03
			-92.00		38.589E-03
			-91.50		39.113E-03
			-91.00		39.637E-03
			-90.50		39.942E-03
			-90.00		40.247E-03
			-89.50		40.641E-03
			-89.00		41.035E-03
			-88.50		41.547E-03
			-88.00		42.058E-03
			-87.50		42.630E-03
			-87.00		43.202E-03
			-86.50		43.614E-03
			-86.00		44.025E-03
			-85.50		44.641E-03
			-85.00		45.257E-03
			-84.50		45.855E-03
			-84.00		46.454E-03
			-83.50		47.007E-03
			-83.00		47.559E-03
			-82.50		48.104E-03
			-82.00		48.648E-03
			-81.50		49.222E-03
			-81.00		49.795E-03
			-80.50		50.311E-03
			-80.00		50.827E-03
			-79.50		51.547E-03
			-79.00		52.267E-03
			-78.50		52.976E-03
			-78.00		53.685E-03
			-77.50		54.409E-03
			-77.00		55.134E-03
			-76.50		55.809E-03
			-76.00		56.484E-03
			-75.50		57.282E-03
			-75.00		58.079E-03
			-74.50		58.806E-03
			-74.00		59.533E-03
			-73.50		60.346E-03
			-73.00		61.160E-03
			-72.50		61.968E-03
			-72.00		62.777E-03
			-71.50		63.676E-03
			-71.00		64.574E-03
			-70.50		65.474E-03
			-70.00		66.374E-03
			-69.50		67.315E-03
			-69.00		68.256E-03
			-68.50		69.279E-03
			-68.00		70.302E-03
			-67.50		71.447E-03
			-67.00		72.591E-03
			-66.50		73.890E-03
			-66.00		75.189E-03
			-65.50		76.435E-03
			-65.00		77.680E-03
			-64.50		79.323E-03
			-64.00		80.965E-03
			-63.50		82.982E-03
			-63.00		85.000E-03
			-62.50		87.550E-03
			-62.00		90.100E-03
			-61.50		93.230E-03
			-61.00		96.359E-03
			-60.50		101.15E-03
			-60.00		105.95E-03
			-59.50		113.51E-03
			-59.00		121.07E-03
			-58.50		133.64E-03
			-58.00		146.22E-03
			-57.50		164.98E-03
			-57.00		183.74E-03
			-56.50		209.11E-03
			-56.00		234.48E-03
			-55.50		264.36E-03
			-55.00		294.24E-03
			-54.50		324.32E-03
			-54.00		354.40E-03
			-53.50		380.54E-03
			-53.00		406.68E-03
			-52.50		427.21E-03
			-52.00		447.74E-03
			-51.50		461.76E-03
			-51.00		475.79E-03
			-50.50		484.30E-03
			-50.00		492.82E-03
			-49.50		498.31E-03
			-49.00		503.81E-03
			-48.50		508.12E-03
			-48.00		512.43E-03
			-47.50		515.51E-03
			-47.00		518.59E-03
			-46.50		521.20E-03
			-46.00		523.82E-03
			-45.50		526.37E-03
			-45.00		528.92E-03
			-44.50		531.09E-03
			-44.00		533.25E-03
			-43.50		535.13E-03
			-43.00		537.01E-03
			-42.50		538.72E-03
			-42.00		540.43E-03
			-41.50		542.04E-03
			-41.00		543.66E-03
			-40.50		545.23E-03
			-40.00		546.80E-03
			-39.50		548.30E-03
			-39.00		549.79E-03
			-38.50		551.16E-03
			-38.00		552.54E-03
			-37.50		553.82E-03
			-37.00		555.09E-03
			-36.50		556.45E-03
			-36.00		557.81E-03
			-35.50		559.30E-03
			-35.00		560.79E-03
			-34.50		562.23E-03
			-34.00		563.67E-03
			-33.50		564.95E-03
			-33.00		566.24E-03
			-32.50		567.41E-03
			-32.00		568.58E-03
			-31.50		569.72E-03
			-31.00		570.85E-03
			-30.50		572.04E-03
			-30.00		573.24E-03
			-29.50		574.51E-03
			-29.00		575.79E-03
			-28.50		577.04E-03
			-28.00		578.30E-03
			-27.50		579.38E-03
			-27.00		580.46E-03
			-26.50		581.26E-03
			-26.00		582.06E-03
			-25.50		582.74E-03
			-25.00		583.42E-03
			-24.50		584.20E-03
			-24.00		584.98E-03
			-23.50		585.80E-03
			-23.00		586.62E-03
			-22.50		587.43E-03
			-22.00		588.24E-03
			-21.50		589.10E-03
			-21.00		589.96E-03
			-20.50		590.82E-03
			-20.00		591.68E-03
			-19.50		592.42E-03
			-19.00		593.17E-03
			-18.50		593.82E-03
			-18.00		594.48E-03
			-17.50		595.10E-03
			-17.00		595.72E-03
			-16.50		596.31E-03
			-16.00		596.90E-03
			-15.50		597.49E-03
			-15.00		598.08E-03
			-14.50		598.69E-03
			-14.00		599.30E-03
			-13.50		599.87E-03
			-13.00		600.44E-03
			-12.50		600.91E-03
			-12.00		601.38E-03
			-11.50		601.70E-03
			-11.00		602.01E-03
			-10.50		602.17E-03
			-10.00		602.33E-03
			-9.50		602.52E-03
			-9.00		602.72E-03
			-8.50		603.06E-03
			-8.00		603.39E-03
			-7.50		603.77E-03
			-7.00		604.15E-03
			-6.50		604.53E-03
			-6.00		604.92E-03
			-5.50		605.32E-03
			-5.00		605.72E-03
			-4.50		605.99E-03
			-4.00		606.27E-03
			-3.50		606.36E-03
			-3.00		606.44E-03
			-2.50		606.47E-03
			-2.00		606.51E-03
			-1.50		606.55E-03
			-1.00		606.59E-03
			-0.50		606.60E-03
			0.00		606.61E-03
			0.50		606.60E-03
			1.00		606.59E-03
			1.50		606.55E-03
			2.00		606.51E-03
			2.50		606.47E-03
			3.00		606.44E-03
			3.50		606.36E-03
			4.00		606.27E-03
			4.50		605.99E-03
			5.00		605.72E-03
			5.50		605.32E-03
			6.00		604.92E-03
			6.50		604.53E-03
			7.00		604.15E-03
			7.50		603.77E-03
			8.00		603.39E-03
			8.50		603.06E-03
			9.00		602.72E-03
			9.50		602.52E-03
			10.00		602.33E-03
			10.50		602.17E-03
			11.00		602.01E-03
			11.50		601.70E-03
			12.00		601.38E-03
			12.50		600.91E-03
			13.00		600.44E-03
			13.50		599.87E-03
			14.00		599.30E-03
			14.50		598.69E-03
			15.00		598.08E-03
			15.50		597.49E-03
			16.00		596.90E-03
			16.50		596.31E-03
			17.00		595.72E-03
			17.50		595.10E-03
			18.00		594.48E-03
			18.50		593.82E-03
			19.00		593.17E-03
			19.50		592.42E-03
			20.00		591.68E-03
			20.50		590.82E-03
			21.00		589.96E-03
			21.50		589.10E-03
			22.00		588.24E-03
			22.50		587.43E-03
			23.00		586.62E-03
			23.50		585.80E-03
			24.00		584.98E-03
			24.50		584.20E-03
			25.00		583.42E-03
			25.50		582.74E-03
			26.00		582.06E-03
			26.50		581.26E-03
			27.00		580.46E-03
			27.50		579.38E-03
			28.00		578.30E-03
			28.50		577.04E-03
			29.00		575.79E-03
			29.50		574.51E-03
			30.00		573.24E-03
			30.50		572.04E-03
			31.00		570.85E-03
			31.50		569.72E-03
			32.00		568.58E-03
			32.50		567.41E-03
			33.00		566.24E-03
			33.50		564.95E-03
			34.00		563.67E-03
			34.50		562.23E-03
			35.00		560.79E-03
			35.50		559.30E-03
			36.00		557.81E-03
			36.50		556.45E-03
			37.00		555.09E-03
			37.50		553.82E-03
			38.00		552.54E-03
			38.50		551.16E-03
			39.00		549.79E-03
			39.50		548.30E-03
			40.00		546.80E-03
			40.50		545.23E-03
			41.00		543.66E-03
			41.50		542.04E-03
			42.00		540.43E-03
			42.50		538.72E-03
			43.00		537.01E-03
			43.50		535.13E-03
			44.00		533.25E-03
			44.50		531.09E-03
			45.00		528.92E-03
			45.50		526.37E-03
			46.00		523.82E-03
			46.50		521.20E-03
			47.00		518.59E-03
			47.50		515.51E-03
			48.00		512.43E-03
			48.50		508.12E-03
			49.00		503.81E-03
			49.50		498.31E-03
			50.00		492.82E-03
			50.50		484.30E-03
			51.00		475.79E-03
			51.50		461.76E-03
			52.00		447.74E-03
			52.50		427.21E-03
			53.00		406.68E-03
			53.50		380.54E-03
			54.00		354.40E-03
			54.50		324.32E-03
			55.00		294.24E-03
			55.50		264.36E-03
			56.00		234.48E-03
			56.50		209.11E-03
			57.00		183.74E-03
			57.50		164.98E-03
			58.00		146.22E-03
			58.50		133.64E-03
			59.00		121.07E-03
			59.50		113.51E-03
			60.00		105.95E-03
			60.50		101.15E-03
			61.00		96.359E-03
			61.50		93.230E-03
			62.00		90.100E-03
			62.50		87.550E-03
			63.00		85.000E-03
			63.50		82.982E-03
			64.00		80.965E-03
			64.50		79.323E-03
			65.00		77.680E-03
			65.50		76.435E-03
			66.00		75.189E-03
			66.50		73.890E-03
			67.00		72.591E-03
			67.50		71.447E-03
			68.00		70.302E-03
			68.50		69.279E-03
			69.00		68.256E-03
			69.50		67.315E-03
			70.00		66.374E-03
			70.50		65.474E-03
			71.00		64.574E-03
			71.50		63.676E-03
			72.00		62.777E-03
			72.50		61.968E-03
			73.00		61.160E-03
			73.50		60.346E-03
			74.00		59.533E-03
			74.50		58.806E-03
			75.00		58.079E-03
			75.50		57.282E-03
			76.00		56.484E-03
			76.50		55.809E-03
			77.00		55.134E-03
			77.50		54.409E-03
			78.00		53.685E-03
			78.50		52.976E-03
			79.00		52.267E-03
			79.50		51.547E-03
			80.00		50.827E-03
			80.50		50.311E-03
			81.00		49.795E-03
			81.50		49.222E-03
			82.00		48.648E-03
			82.50		48.104E-03
			83.00		47.559E-03
			83.50		47.007E-03
			84.00		46.454E-03
			84.50		45.855E-03
			85.00		45.257E-03
			85.50		44.641E-03
			86.00		44.025E-03
			86.50		43.614E-03
			87.00		43.202E-03
			87.50		42.630E-03
			88.00		42.058E-03
			88.50		41.547E-03
			89.00		41.035E-03
			89.50		40.641E-03
			90.00		40.247E-03
			90.50		39.942E-03
			91.00		39.637E-03
			91.50		39.113E-03
			92.00		38.589E-03
			92.50		38.098E-03
			93.00		37.607E-03
			93.50		37.291E-03
			94.00		36.976E-03
		END_DATA
	END_SCAN  4
	BEGIN_SCAN  5
		TASK_NAME=tba PDD Profiles
		PROGRAM=WaterTankScans
		COMMENT=PDD + 5x X
		MEAS_DATE=09-Feb-2021 16:08:45
		LINAC=TRUEBEAMSN4791
		MODALITY=X
		ISOCENTER=1000.00
		INPLANE_AXIS=Y
		CROSSPLANE_AXIS=X
		DEPTH_AXIS=Depth
		INPLANE_AXIS_DIR=TARGET_GUN
		CROSSPLANE_AXIS_DIR=LEFT_RIGHT
		DEPTH_AXIS_DIR=UP_DOWN
		ENERGY=6.00
		NOMINAL_DMAX=15.00
		SSD=900.00
		SCD=450.00
		WEDGE_ANGLE=0.00
		FIELD_INPLANE=100.00
		FIELD_CROSSPLANE=100.00
		FIELD_TYPE=RECTANGULAR
		GANTRY=0.00
		GANTRY_UPRIGHT_POSITION=0
		GANTRY_ROTATION=CW
		COLL_ANGLE=0.00
		COLL_OFFSET_INPLANE=0.00
		COLL_OFFSET_CROSSPLANE=0.00
		SCAN_DEVICE=BeamScan
		SCAN_DEVICE_SETUP=BARA_LEFT_RIGHT
		ELECTROMETER=BeamScan
		RANGE_FIELD=LOW
		RANGE_REFERENCE=MEDIUM
		DETECTOR=THIMBLE_CHAMBER
		DETECTOR_SUBCODE=SEMIFLEX
		DETECTOR_RADIUS=2.40
		DETECTOR_NAME=PTW 31021 Semiflex 3D (1)
		DETECTOR_SN=142316
		DETECTOR_CALIBRATION=588000000.00
		DETECTOR_IS_CALIBRATED=1
		DETECTOR_REFERENCE=THIMBLE_CHAMBER
		DETECTOR_REFERENCE_SUBCODE=SEMIFLEX
		DETECTOR_REFERENCE_RADIUS=2.75
		DETECTOR_REFERENCE_NAME=PTW 31010 Semiflex (1)
		DETECTOR_REFERENCE_SN=Ã¢â‚¬â€
		DETECTOR_REFERENCE_IS_CALIBRATED=0
		DETECTOR_REFERENCE_CALIBRATION=303000000.00
		DETECTOR_HV=400.0
		DETECTOR_REFERENCE_HV=400.0
		DETECTOR_ORIENTATION=HORIZONTAL
		FILTER=FFF
		SCAN_SPEED_PROFILE=12.50
		SCAN_PROF_SPEED_DEP=DEPTH
		SCAN_SPEED_PDD=12.50
		SCAN_PDD_SPEED_DEP=ENERGY
		DETECTOR_TYPE=T31021
		REF_FIELD_DEPTH=100.00
		REF_FIELD_DEFINED=ISOCENTER
		REF_FIELD_INPLANE=100.00
		REF_FIELD_CROSSPLANE=100.00
		REF_SCAN_POSITIONS=-85.00;-84.00;-83.00;-82.00;-81.00;-80.00;-79.00;-78.00;-77.00;-76.00;-75.00;-74.00;-73.00;-72.00;-71.00;-70.00;-69.00;-68.00;-67.00;-66.00;-65.00;-64.00;-63.00;-62.00;-61.00;-60.00;-59.00;-58.00;-57.00;-56.00;-55.00;-54.00;-53.00;-52.00;-51.00;-50.00;-49.00;-48.00;-47.00;-46.00;-45.00;-44.00;-43.00;-42.00;-41.00;-40.00;-39.00;-38.00;-37.00;-36.00;-35.00;-34.00;-33.00;-32.00;-31.00;-30.00;-29.00;-28.00;-27.00;-26.00;-25.00;-24.00;-23.00;-22.00;-21.00;-20.00;-19.00;-18.00;-17.00;-16.00;-15.00;-14.00;-13.00;-12.00;-11.00;-10.00;-9.00;-8.00;-7.00;-6.00;-5.00;-4.00;-3.00;-2.00;-1.00;0.00;1.00;2.00;3.00;4.00;5.00;6.00;7.00;8.00;9.00;10.00;11.00;12.00;13.00;14.00;15.00;16.00;17.00;18.00;19.00;20.00;21.00;22.00;23.00;24.00;25.00;26.00;27.00;28.00;29.00;30.00;31.00;32.00;33.00;34.00;35.00;36.00;37.00;38.00;39.00;40.00;41.00;42.00;43.00;44.00;45.00;46.00;47.00;48.00;49.00;50.00;51.00;52.00;53.00;54.00;55.00;56.00;57.00;58.00;59.00;60.00;61.00;62.00;63.00;64.00;65.00;66.00;67.00;68.00;69.00;70.00;71.00;72.00;73.00;74.00;75.00;76.00;77.00;78.00;79.00;80.00;81.00;82.00;83.00;84.00;85.00;
		REF_OVERSCAN_FACTOR=1.00
		SCAN_CURVETYPE=CROSSPLANE_PROFILE
		SCAN_DEPTH=300.00
		SCAN_OFFAXIS_INPLANE=0.00
		SCAN_OFFAXIS_CROSSPLANE=0.00
		SCAN_ANGLE=0.00
		SCAN_DIAGONAL=NOT_DIAGONAL
		SCAN_DIRECTION=POSITIVE
		MEAS_MEDIUM=WATER
		MEAS_PRESET=MEAS_CONTINUOUS_REFERENCE_SCAN
		MEAS_TIME=0.080
		MEAS_UNIT=A.U.
		INCLINATION_ANGLE=0.00
		PRESSURE=1013.25
		TEMPERATURE=20.00
		NORM_TEMPERATURE=20.00
		CORRECTION_FACTOR=1.0000
		EXPECTED_MAX_DOSE_RATE=3.00
		EPOM_DEPTH_SHIFT=0.2
		EPOM_MODE=SHIFT_PROTOCOL
		CORRECTIONS=SMOOTHED_CORR;SYMMETRY_CORR;INTERPOLATED_CORR;
		BEGIN_DATA
			-102.00		25.399E-03
			-101.50		25.623E-03
			-101.00		25.847E-03
			-100.50		26.113E-03
			-100.00		26.379E-03
			-99.50		26.643E-03
			-99.00		26.906E-03
			-98.50		27.103E-03
			-98.00		27.300E-03
			-97.50		27.530E-03
			-97.00		27.761E-03
			-96.50		28.120E-03
			-96.00		28.480E-03
			-95.50		28.720E-03
			-95.00		28.960E-03
			-94.50		29.336E-03
			-94.00		29.711E-03
			-93.50		30.011E-03
			-93.00		30.311E-03
			-92.50		30.570E-03
			-92.00		30.829E-03
			-91.50		31.111E-03
			-91.00		31.393E-03
			-90.50		31.783E-03
			-90.00		32.173E-03
			-89.50		32.531E-03
			-89.00		32.889E-03
			-88.50		33.166E-03
			-88.00		33.443E-03
			-87.50		33.665E-03
			-87.00		33.886E-03
			-86.50		34.342E-03
			-86.00		34.798E-03
			-85.50		35.226E-03
			-85.00		35.654E-03
			-84.50		35.802E-03
			-84.00		35.949E-03
			-83.50		36.433E-03
			-83.00		36.918E-03
			-82.50		37.343E-03
			-82.00		37.768E-03
			-81.50		38.214E-03
			-81.00		38.661E-03
			-80.50		39.103E-03
			-80.00		39.544E-03
			-79.50		40.038E-03
			-79.00		40.533E-03
			-78.50		40.941E-03
			-78.00		41.350E-03
			-77.50		41.833E-03
			-77.00		42.317E-03
			-76.50		42.839E-03
			-76.00		43.362E-03
			-75.50		43.637E-03
			-75.00		43.913E-03
			-74.50		44.574E-03
			-74.00		45.236E-03
			-73.50		45.848E-03
			-73.00		46.461E-03
			-72.50		46.926E-03
			-72.00		47.392E-03
			-71.50		48.138E-03
			-71.00		48.884E-03
			-70.50		49.656E-03
			-70.00		50.428E-03
			-69.50		51.362E-03
			-69.00		52.295E-03
			-68.50		53.430E-03
			-68.00		54.565E-03
			-67.50		55.832E-03
			-67.00		57.099E-03
			-66.50		58.816E-03
			-66.00		60.532E-03
			-65.50		63.611E-03
			-65.00		66.690E-03
			-64.50		70.880E-03
			-64.00		75.069E-03
			-63.50		81.842E-03
			-63.00		88.615E-03
			-62.50		98.357E-03
			-62.00		108.10E-03
			-61.50		120.74E-03
			-61.00		133.38E-03
			-60.50		148.03E-03
			-60.00		162.68E-03
			-59.50		177.62E-03
			-59.00		192.56E-03
			-58.50		205.78E-03
			-58.00		219.00E-03
			-57.50		229.55E-03
			-57.00		240.11E-03
			-56.50		247.44E-03
			-56.00		254.77E-03
			-55.50		259.56E-03
			-55.00		264.36E-03
			-54.50		267.54E-03
			-54.00		270.71E-03
			-53.50		273.08E-03
			-53.00		275.45E-03
			-52.50		277.33E-03
			-52.00		279.21E-03
			-51.50		280.62E-03
			-51.00		282.02E-03
			-50.50		283.33E-03
			-50.00		284.64E-03
			-49.50		285.86E-03
			-49.00		287.08E-03
			-48.50		288.17E-03
			-48.00		289.27E-03
			-47.50		290.21E-03
			-47.00		291.14E-03
			-46.50		291.98E-03
			-46.00		292.82E-03
			-45.50		293.67E-03
			-45.00		294.52E-03
			-44.50		295.34E-03
			-44.00		296.16E-03
			-43.50		296.95E-03
			-43.00		297.74E-03
			-42.50		298.55E-03
			-42.00		299.36E-03
			-41.50		300.09E-03
			-41.00		300.82E-03
			-40.50		301.39E-03
			-40.00		301.96E-03
			-39.50		302.52E-03
			-39.00		303.08E-03
			-38.50		303.76E-03
			-38.00		304.44E-03
			-37.50		305.16E-03
			-37.00		305.88E-03
			-36.50		306.50E-03
			-36.00		307.12E-03
			-35.50		307.68E-03
			-35.00		308.23E-03
			-34.50		308.87E-03
			-34.00		309.51E-03
			-33.50		310.20E-03
			-33.00		310.89E-03
			-32.50		311.48E-03
			-32.00		312.08E-03
			-31.50		312.57E-03
			-31.00		313.07E-03
			-30.50		313.53E-03
			-30.00		313.98E-03
			-29.50		314.46E-03
			-29.00		314.95E-03
			-28.50		315.46E-03
			-28.00		315.98E-03
			-27.50		316.46E-03
			-27.00		316.95E-03
			-26.50		317.36E-03
			-26.00		317.78E-03
			-25.50		318.14E-03
			-25.00		318.50E-03
			-24.50		318.90E-03
			-24.00		319.30E-03
			-23.50		319.77E-03
			-23.00		320.24E-03
			-22.50		320.72E-03
			-22.00		321.20E-03
			-21.50		321.60E-03
			-21.00		321.99E-03
			-20.50		322.23E-03
			-20.00		322.48E-03
			-19.50		322.70E-03
			-19.00		322.92E-03
			-18.50		323.28E-03
			-18.00		323.65E-03
			-17.50		324.07E-03
			-17.00		324.50E-03
			-16.50		324.79E-03
			-16.00		325.08E-03
			-15.50		325.26E-03
			-15.00		325.45E-03
			-14.50		325.68E-03
			-14.00		325.90E-03
			-13.50		326.17E-03
			-13.00		326.44E-03
			-12.50		326.66E-03
			-12.00		326.88E-03
			-11.50		327.05E-03
			-11.00		327.21E-03
			-10.50		327.35E-03
			-10.00		327.48E-03
			-9.50		327.63E-03
			-9.00		327.79E-03
			-8.50		328.03E-03
			-8.00		328.27E-03
			-7.50		328.53E-03
			-7.00		328.80E-03
			-6.50		328.97E-03
			-6.00		329.14E-03
			-5.50		329.24E-03
			-5.00		329.34E-03
			-4.50		329.47E-03
			-4.00		329.60E-03
			-3.50		329.73E-03
			-3.00		329.86E-03
			-2.50		329.92E-03
			-2.00		329.98E-03
			-1.50		330.02E-03
			-1.00		330.05E-03
			-0.50		330.07E-03
			0.00		330.10E-03
			0.50		330.07E-03
			1.00		330.05E-03
			1.50		330.02E-03
			2.00		329.98E-03
			2.50		329.92E-03
			3.00		329.86E-03
			3.50		329.73E-03
			4.00		329.60E-03
			4.50		329.47E-03
			5.00		329.34E-03
			5.50		329.24E-03
			6.00		329.14E-03
			6.50		328.97E-03
			7.00		328.80E-03
			7.50		328.53E-03
			8.00		328.27E-03
			8.50		328.03E-03
			9.00		327.79E-03
			9.50		327.63E-03
			10.00		327.48E-03
			10.50		327.35E-03
			11.00		327.21E-03
			11.50		327.05E-03
			12.00		326.88E-03
			12.50		326.66E-03
			13.00		326.44E-03
			13.50		326.17E-03
			14.00		325.90E-03
			14.50		325.68E-03
			15.00		325.45E-03
			15.50		325.26E-03
			16.00		325.08E-03
			16.50		324.79E-03
			17.00		324.50E-03
			17.50		324.07E-03
			18.00		323.65E-03
			18.50		323.28E-03
			19.00		322.92E-03
			19.50		322.70E-03
			20.00		322.48E-03
			20.50		322.23E-03
			21.00		321.99E-03
			21.50		321.60E-03
			22.00		321.20E-03
			22.50		320.72E-03
			23.00		320.24E-03
			23.50		319.77E-03
			24.00		319.30E-03
			24.50		318.90E-03
			25.00		318.50E-03
			25.50		318.14E-03
			26.00		317.78E-03
			26.50		317.36E-03
			27.00		316.95E-03
			27.50		316.46E-03
			28.00		315.98E-03
			28.50		315.46E-03
			29.00		314.95E-03
			29.50		314.46E-03
			30.00		313.98E-03
			30.50		313.53E-03
			31.00		313.07E-03
			31.50		312.57E-03
			32.00		312.08E-03
			32.50		311.48E-03
			33.00		310.89E-03
			33.50		310.20E-03
			34.00		309.51E-03
			34.50		308.87E-03
			35.00		308.23E-03
			35.50		307.68E-03
			36.00		307.12E-03
			36.50		306.50E-03
			37.00		305.88E-03
			37.50		305.16E-03
			38.00		304.44E-03
			38.50		303.76E-03
			39.00		303.08E-03
			39.50		302.52E-03
			40.00		301.96E-03
			40.50		301.39E-03
			41.00		300.82E-03
			41.50		300.09E-03
			42.00		299.36E-03
			42.50		298.55E-03
			43.00		297.74E-03
			43.50		296.95E-03
			44.00		296.16E-03
			44.50		295.34E-03
			45.00		294.52E-03
			45.50		293.67E-03
			46.00		292.82E-03
			46.50		291.98E-03
			47.00		291.14E-03
			47.50		290.21E-03
			48.00		289.27E-03
			48.50		288.17E-03
			49.00		287.08E-03
			49.50		285.86E-03
			50.00		284.64E-03
			50.50		283.33E-03
			51.00		282.02E-03
			51.50		280.62E-03
			52.00		279.21E-03
			52.50		277.33E-03
			53.00		275.45E-03
			53.50		273.08E-03
			54.00		270.71E-03
			54.50		267.54E-03
			55.00		264.36E-03
			55.50		259.56E-03
			56.00		254.77E-03
			56.50		247.44E-03
			57.00		240.11E-03
			57.50		229.55E-03
			58.00		219.00E-03
			58.50		205.78E-03
			59.00		192.56E-03
			59.50		177.62E-03
			60.00		162.68E-03
			60.50		148.03E-03
			61.00		133.38E-03
			61.50		120.74E-03
			62.00		108.10E-03
			62.50		98.357E-03
			63.00		88.615E-03
			63.50		81.842E-03
			64.00		75.069E-03
			64.50		70.880E-03
			65.00		66.690E-03
			65.50		63.611E-03
			66.00		60.532E-03
			66.50		58.816E-03
			67.00		57.099E-03
			67.50		55.832E-03
			68.00		54.565E-03
			68.50		53.430E-03
			69.00		52.295E-03
			69.50		51.362E-03
			70.00		50.428E-03
			70.50		49.656E-03
			71.00		48.884E-03
			71.50		48.138E-03
			72.00		47.392E-03
			72.50		46.926E-03
			73.00		46.461E-03
			73.50		45.848E-03
			74.00		45.236E-03
			74.50		44.574E-03
			75.00		43.913E-03
			75.50		43.637E-03
			76.00		43.362E-03
			76.50		42.839E-03
			77.00		42.317E-03
			77.50		41.833E-03
			78.00		41.350E-03
			78.50		40.941E-03
			79.00		40.533E-03
			79.50		40.038E-03
			80.00		39.544E-03
			80.50		39.103E-03
			81.00		38.661E-03
			81.50		38.214E-03
			82.00		37.768E-03
			82.50		37.343E-03
			83.00		36.918E-03
			83.50		36.433E-03
			84.00		35.949E-03
			84.50		35.802E-03
			85.00		35.654E-03
			85.50		35.226E-03
			86.00		34.798E-03
			86.50		34.342E-03
			87.00		33.886E-03
			87.50		33.665E-03
			88.00		33.443E-03
			88.50		33.166E-03
			89.00		32.889E-03
			89.50		32.531E-03
			90.00		32.173E-03
			90.50		31.783E-03
			91.00		31.393E-03
			91.50		31.111E-03
			92.00		30.829E-03
			92.50		30.570E-03
			93.00		30.311E-03
			93.50		30.011E-03
			94.00		29.711E-03
			94.50		29.336E-03
			95.00		28.960E-03
			95.50		28.720E-03
			96.00		28.480E-03
			96.50		28.120E-03
			97.00		27.761E-03
			97.50		27.530E-03
			98.00		27.300E-03
			98.50		27.103E-03
			99.00		26.906E-03
			99.50		26.643E-03
			100.00		26.379E-03
			100.50		26.113E-03
			101.00		25.847E-03
			101.50		25.623E-03
			102.00		25.399E-03
		END_DATA
	END_SCAN  5
END_SCAN_DATA
