BEGIN_SCAN_DATA
	FORMAT=CC-Export V1.9                  
	FILE_CREATION_DATE=26-Jul-2022 10:35:57
	LAST_MODIFIED=26-Jul-2022 10:35:57
	BEGIN_SCAN  1
		TASK_NAME=tba PDD Profiles
		PROGRAM=WaterTankScans
		COMMENT=PDD + 5x X
		MEAS_DATE=09-Feb-2021 16:15:20
		LINAC=TRUEBEAMSN4791
		MODALITY=X
		ISOCENTER=1000.00
		INPLANE_AXIS=Y
		CROSSPLANE_AXIS=X
		DEPTH_AXIS=Depth
		INPLANE_AXIS_DIR=TARGET_GUN
		CROSSPLANE_AXIS_DIR=LEFT_RIGHT
		DEPTH_AXIS_DIR=UP_DOWN
		ENERGY=6.00
		NOMINAL_DMAX=15.00
		SSD=900.00
		SCD=450.00
		WEDGE_ANGLE=0.00
		FIELD_INPLANE=150.00
		FIELD_CROSSPLANE=150.00
		FIELD_TYPE=RECTANGULAR
		GANTRY=0.00
		GANTRY_UPRIGHT_POSITION=0
		GANTRY_ROTATION=CW
		COLL_ANGLE=0.00
		COLL_OFFSET_INPLANE=0.00
		COLL_OFFSET_CROSSPLANE=0.00
		SCAN_DEVICE=BeamScan
		SCAN_DEVICE_SETUP=BARA_LEFT_RIGHT
		ELECTROMETER=BeamScan
		RANGE_FIELD=LOW
		RANGE_REFERENCE=MEDIUM
		DETECTOR=THIMBLE_CHAMBER
		DETECTOR_SUBCODE=SEMIFLEX
		DETECTOR_RADIUS=2.40
		DETECTOR_NAME=PTW 31021 Semiflex 3D (1)
		DETECTOR_SN=142316
		DETECTOR_CALIBRATION=588000000.00
		DETECTOR_IS_CALIBRATED=1
		DETECTOR_REFERENCE=THIMBLE_CHAMBER
		DETECTOR_REFERENCE_SUBCODE=SEMIFLEX
		DETECTOR_REFERENCE_RADIUS=2.75
		DETECTOR_REFERENCE_NAME=PTW 31010 Semiflex (1)
		DETECTOR_REFERENCE_SN=ÃƒÆ’Ã‚Â¢ÃƒÂ¢Ã¢â‚¬Å¡Ã‚Â¬ÃƒÂ¢Ã¢â€šÂ¬
		DETECTOR_REFERENCE_IS_CALIBRATED=0
		DETECTOR_REFERENCE_CALIBRATION=303000000.00
		DETECTOR_HV=400.0
		DETECTOR_REFERENCE_HV=400.0
		DETECTOR_ORIENTATION=HORIZONTAL
		FILTER=FFF
		SCAN_SPEED_PROFILE=12.50
		SCAN_PROF_SPEED_DEP=DEPTH
		SCAN_SPEED_PDD=12.50
		SCAN_PDD_SPEED_DEP=ENERGY
		DETECTOR_TYPE=T31021
		REF_FIELD_DEPTH=100.00
		REF_FIELD_DEFINED=ISOCENTER
		REF_FIELD_INPLANE=100.00
		REF_FIELD_CROSSPLANE=100.00
		REF_SCAN_POSITIONS=-85.00;-84.00;-83.00;-82.00;-81.00;-80.00;-79.00;-78.00;-77.00;-76.00;-75.00;-74.00;-73.00;-72.00;-71.00;-70.00;-69.00;-68.00;-67.00;-66.00;-65.00;-64.00;-63.00;-62.00;-61.00;-60.00;-59.00;-58.00;-57.00;-56.00;-55.00;-54.00;-53.00;-52.00;-51.00;-50.00;-49.00;-48.00;-47.00;-46.00;-45.00;-44.00;-43.00;-42.00;-41.00;-40.00;-39.00;-38.00;-37.00;-36.00;-35.00;-34.00;-33.00;-32.00;-31.00;-30.00;-29.00;-28.00;-27.00;-26.00;-25.00;-24.00;-23.00;-22.00;-21.00;-20.00;-19.00;-18.00;-17.00;-16.00;-15.00;-14.00;-13.00;-12.00;-11.00;-10.00;-9.00;-8.00;-7.00;-6.00;-5.00;-4.00;-3.00;-2.00;-1.00;0.00;1.00;2.00;3.00;4.00;5.00;6.00;7.00;8.00;9.00;10.00;11.00;12.00;13.00;14.00;15.00;16.00;17.00;18.00;19.00;20.00;21.00;22.00;23.00;24.00;25.00;26.00;27.00;28.00;29.00;30.00;31.00;32.00;33.00;34.00;35.00;36.00;37.00;38.00;39.00;40.00;41.00;42.00;43.00;44.00;45.00;46.00;47.00;48.00;49.00;50.00;51.00;52.00;53.00;54.00;55.00;56.00;57.00;58.00;59.00;60.00;61.00;62.00;63.00;64.00;65.00;66.00;67.00;68.00;69.00;70.00;71.00;72.00;73.00;74.00;75.00;76.00;77.00;78.00;79.00;80.00;81.00;82.00;83.00;84.00;85.00;
		REF_OVERSCAN_FACTOR=1.00
		SCAN_CURVETYPE=CROSSPLANE_PROFILE
		SCAN_DEPTH=15.00
		SCAN_OFFAXIS_INPLANE=0.00
		SCAN_OFFAXIS_CROSSPLANE=0.00
		SCAN_ANGLE=0.00
		SCAN_DIAGONAL=NOT_DIAGONAL
		SCAN_DIRECTION=POSITIVE
		MEAS_MEDIUM=WATER
		MEAS_PRESET=MEAS_CONTINUOUS_REFERENCE_SCAN
		MEAS_TIME=0.080
		MEAS_UNIT=A.U.
		INCLINATION_ANGLE=0.00
		PRESSURE=1013.25
		TEMPERATURE=20.00
		NORM_TEMPERATURE=20.00
		CORRECTION_FACTOR=1.0000
		EXPECTED_MAX_DOSE_RATE=3.00
		EPOM_DEPTH_SHIFT=0.2
		EPOM_MODE=SHIFT_PROTOCOL
		CORRECTIONS=SMOOTHED_CORR;SYMMETRY_CORR;INTERPOLATED_CORR;
		BEGIN_DATA
			-101.00		34.598E-03
			-100.50		34.879E-03
			-100.00		35.160E-03
			-99.50		35.566E-03
			-99.00		35.971E-03
			-98.50		36.502E-03
			-98.00		37.032E-03
			-97.50		37.607E-03
			-97.00		38.181E-03
			-96.50		38.628E-03
			-96.00		39.075E-03
			-95.50		39.391E-03
			-95.00		39.708E-03
			-94.50		40.157E-03
			-94.00		40.606E-03
			-93.50		41.227E-03
			-93.00		41.848E-03
			-92.50		42.538E-03
			-92.00		43.228E-03
			-91.50		43.674E-03
			-91.00		44.120E-03
			-90.50		44.883E-03
			-90.00		45.646E-03
			-89.50		46.285E-03
			-89.00		46.923E-03
			-88.50		47.629E-03
			-88.00		48.335E-03
			-87.50		49.031E-03
			-87.00		49.728E-03
			-86.50		50.660E-03
			-86.00		51.592E-03
			-85.50		52.455E-03
			-85.00		53.317E-03
			-84.50		54.532E-03
			-84.00		55.748E-03
			-83.50		56.830E-03
			-83.00		57.911E-03
			-82.50		59.021E-03
			-82.00		60.130E-03
			-81.50		61.421E-03
			-81.00		62.712E-03
			-80.50		64.246E-03
			-80.00		65.781E-03
			-79.50		67.727E-03
			-79.00		69.672E-03
			-78.50		72.139E-03
			-78.00		74.606E-03
			-77.50		77.459E-03
			-77.00		80.313E-03
			-76.50		84.168E-03
			-76.00		88.023E-03
			-75.50		93.536E-03
			-75.00		99.049E-03
			-74.50		107.36E-03
			-74.00		115.67E-03
			-73.50		130.44E-03
			-73.00		145.20E-03
			-72.50		174.02E-03
			-72.00		202.84E-03
			-71.50		258.84E-03
			-71.00		314.84E-03
			-70.50		397.18E-03
			-70.00		479.53E-03
			-69.50		579.50E-03
			-69.00		679.46E-03
			-68.50		784.41E-03
			-68.00		889.36E-03
			-67.50		983.08E-03
			-67.00		1.0768E+00
			-66.50		1.1498E+00
			-66.00		1.2228E+00
			-65.50		1.2678E+00
			-65.00		1.3128E+00
			-64.50		1.3370E+00
			-64.00		1.3613E+00
			-63.50		1.3754E+00
			-63.00		1.3895E+00
			-62.50		1.3990E+00
			-62.00		1.4086E+00
			-61.50		1.4158E+00
			-61.00		1.4229E+00
			-60.50		1.4288E+00
			-60.00		1.4347E+00
			-59.50		1.4402E+00
			-59.00		1.4457E+00
			-58.50		1.4506E+00
			-58.00		1.4554E+00
			-57.50		1.4597E+00
			-57.00		1.4641E+00
			-56.50		1.4681E+00
			-56.00		1.4721E+00
			-55.50		1.4761E+00
			-55.00		1.4800E+00
			-54.50		1.4836E+00
			-54.00		1.4873E+00
			-53.50		1.4909E+00
			-53.00		1.4945E+00
			-52.50		1.4983E+00
			-52.00		1.5021E+00
			-51.50		1.5059E+00
			-51.00		1.5096E+00
			-50.50		1.5131E+00
			-50.00		1.5165E+00
			-49.50		1.5196E+00
			-49.00		1.5227E+00
			-48.50		1.5259E+00
			-48.00		1.5290E+00
			-47.50		1.5321E+00
			-47.00		1.5352E+00
			-46.50		1.5382E+00
			-46.00		1.5413E+00
			-45.50		1.5445E+00
			-45.00		1.5476E+00
			-44.50		1.5509E+00
			-44.00		1.5541E+00
			-43.50		1.5573E+00
			-43.00		1.5605E+00
			-42.50		1.5636E+00
			-42.00		1.5667E+00
			-41.50		1.5699E+00
			-41.00		1.5732E+00
			-40.50		1.5765E+00
			-40.00		1.5798E+00
			-39.50		1.5829E+00
			-39.00		1.5860E+00
			-38.50		1.5889E+00
			-38.00		1.5918E+00
			-37.50		1.5946E+00
			-37.00		1.5974E+00
			-36.50		1.6001E+00
			-36.00		1.6028E+00
			-35.50		1.6056E+00
			-35.00		1.6085E+00
			-34.50		1.6113E+00
			-34.00		1.6141E+00
			-33.50		1.6166E+00
			-33.00		1.6192E+00
			-32.50		1.6220E+00
			-32.00		1.6248E+00
			-31.50		1.6277E+00
			-31.00		1.6306E+00
			-30.50		1.6335E+00
			-30.00		1.6365E+00
			-29.50		1.6392E+00
			-29.00		1.6418E+00
			-28.50		1.6442E+00
			-28.00		1.6465E+00
			-27.50		1.6485E+00
			-27.00		1.6505E+00
			-26.50		1.6525E+00
			-26.00		1.6546E+00
			-25.50		1.6569E+00
			-25.00		1.6593E+00
			-24.50		1.6618E+00
			-24.00		1.6643E+00
			-23.50		1.6667E+00
			-23.00		1.6691E+00
			-22.50		1.6713E+00
			-22.00		1.6734E+00
			-21.50		1.6755E+00
			-21.00		1.6775E+00
			-20.50		1.6795E+00
			-20.00		1.6814E+00
			-19.50		1.6834E+00
			-19.00		1.6854E+00
			-18.50		1.6873E+00
			-18.00		1.6892E+00
			-17.50		1.6909E+00
			-17.00		1.6925E+00
			-16.50		1.6940E+00
			-16.00		1.6955E+00
			-15.50		1.6970E+00
			-15.00		1.6985E+00
			-14.50		1.6999E+00
			-14.00		1.7013E+00
			-13.50		1.7026E+00
			-13.00		1.7039E+00
			-12.50		1.7052E+00
			-12.00		1.7064E+00
			-11.50		1.7076E+00
			-11.00		1.7088E+00
			-10.50		1.7101E+00
			-10.00		1.7114E+00
			-9.50		1.7127E+00
			-9.00		1.7140E+00
			-8.50		1.7148E+00
			-8.00		1.7157E+00
			-7.50		1.7164E+00
			-7.00		1.7170E+00
			-6.50		1.7175E+00
			-6.00		1.7180E+00
			-5.50		1.7184E+00
			-5.00		1.7187E+00
			-4.50		1.7190E+00
			-4.00		1.7192E+00
			-3.50		1.7196E+00
			-3.00		1.7200E+00
			-2.50		1.7204E+00
			-2.00		1.7207E+00
			-1.50		1.7210E+00
			-1.00		1.7213E+00
			-0.50		1.7213E+00
			0.00		1.7214E+00
			0.50		1.7213E+00
			1.00		1.7213E+00
			1.50		1.7210E+00
			2.00		1.7207E+00
			2.50		1.7204E+00
			3.00		1.7200E+00
			3.50		1.7196E+00
			4.00		1.7192E+00
			4.50		1.7190E+00
			5.00		1.7187E+00
			5.50		1.7184E+00
			6.00		1.7180E+00
			6.50		1.7175E+00
			7.00		1.7170E+00
			7.50		1.7164E+00
			8.00		1.7157E+00
			8.50		1.7148E+00
			9.00		1.7140E+00
			9.50		1.7127E+00
			10.00		1.7114E+00
			10.50		1.7101E+00
			11.00		1.7088E+00
			11.50		1.7076E+00
			12.00		1.7064E+00
			12.50		1.7052E+00
			13.00		1.7039E+00
			13.50		1.7026E+00
			14.00		1.7013E+00
			14.50		1.6999E+00
			15.00		1.6985E+00
			15.50		1.6970E+00
			16.00		1.6955E+00
			16.50		1.6940E+00
			17.00		1.6925E+00
			17.50		1.6909E+00
			18.00		1.6892E+00
			18.50		1.6873E+00
			19.00		1.6854E+00
			19.50		1.6834E+00
			20.00		1.6814E+00
			20.50		1.6795E+00
			21.00		1.6775E+00
			21.50		1.6755E+00
			22.00		1.6734E+00
			22.50		1.6713E+00
			23.00		1.6691E+00
			23.50		1.6667E+00
			24.00		1.6643E+00
			24.50		1.6618E+00
			25.00		1.6593E+00
			25.50		1.6569E+00
			26.00		1.6546E+00
			26.50		1.6525E+00
			27.00		1.6505E+00
			27.50		1.6485E+00
			28.00		1.6465E+00
			28.50		1.6442E+00
			29.00		1.6418E+00
			29.50		1.6392E+00
			30.00		1.6365E+00
			30.50		1.6335E+00
			31.00		1.6306E+00
			31.50		1.6277E+00
			32.00		1.6248E+00
			32.50		1.6220E+00
			33.00		1.6192E+00
			33.50		1.6166E+00
			34.00		1.6141E+00
			34.50		1.6113E+00
			35.00		1.6085E+00
			35.50		1.6056E+00
			36.00		1.6028E+00
			36.50		1.6001E+00
			37.00		1.5974E+00
			37.50		1.5946E+00
			38.00		1.5918E+00
			38.50		1.5889E+00
			39.00		1.5860E+00
			39.50		1.5829E+00
			40.00		1.5798E+00
			40.50		1.5765E+00
			41.00		1.5732E+00
			41.50		1.5699E+00
			42.00		1.5667E+00
			42.50		1.5636E+00
			43.00		1.5605E+00
			43.50		1.5573E+00
			44.00		1.5541E+00
			44.50		1.5509E+00
			45.00		1.5476E+00
			45.50		1.5445E+00
			46.00		1.5413E+00
			46.50		1.5382E+00
			47.00		1.5352E+00
			47.50		1.5321E+00
			48.00		1.5290E+00
			48.50		1.5259E+00
			49.00		1.5227E+00
			49.50		1.5196E+00
			50.00		1.5165E+00
			50.50		1.5131E+00
			51.00		1.5096E+00
			51.50		1.5059E+00
			52.00		1.5021E+00
			52.50		1.4983E+00
			53.00		1.4945E+00
			53.50		1.4909E+00
			54.00		1.4873E+00
			54.50		1.4836E+00
			55.00		1.4800E+00
			55.50		1.4761E+00
			56.00		1.4721E+00
			56.50		1.4681E+00
			57.00		1.4641E+00
			57.50		1.4597E+00
			58.00		1.4554E+00
			58.50		1.4506E+00
			59.00		1.4457E+00
			59.50		1.4402E+00
			60.00		1.4347E+00
			60.50		1.4288E+00
			61.00		1.4229E+00
			61.50		1.4158E+00
			62.00		1.4086E+00
			62.50		1.3990E+00
			63.00		1.3895E+00
			63.50		1.3754E+00
			64.00		1.3613E+00
			64.50		1.3370E+00
			65.00		1.3128E+00
			65.50		1.2678E+00
			66.00		1.2228E+00
			66.50		1.1498E+00
			67.00		1.0768E+00
			67.50		983.08E-03
			68.00		889.36E-03
			68.50		784.41E-03
			69.00		679.46E-03
			69.50		579.50E-03
			70.00		479.53E-03
			70.50		397.18E-03
			71.00		314.84E-03
			71.50		258.84E-03
			72.00		202.84E-03
			72.50		174.02E-03
			73.00		145.20E-03
			73.50		130.44E-03
			74.00		115.67E-03
			74.50		107.36E-03
			75.00		99.049E-03
			75.50		93.536E-03
			76.00		88.023E-03
			76.50		84.168E-03
			77.00		80.313E-03
			77.50		77.459E-03
			78.00		74.606E-03
			78.50		72.139E-03
			79.00		69.672E-03
			79.50		67.727E-03
			80.00		65.781E-03
			80.50		64.246E-03
			81.00		62.712E-03
			81.50		61.421E-03
			82.00		60.130E-03
			82.50		59.021E-03
			83.00		57.911E-03
			83.50		56.830E-03
			84.00		55.748E-03
			84.50		54.532E-03
			85.00		53.317E-03
			85.50		52.455E-03
			86.00		51.592E-03
			86.50		50.660E-03
			87.00		49.728E-03
			87.50		49.031E-03
			88.00		48.335E-03
			88.50		47.629E-03
			89.00		46.923E-03
			89.50		46.285E-03
			90.00		45.646E-03
			90.50		44.883E-03
			91.00		44.120E-03
			91.50		43.674E-03
			92.00		43.228E-03
			92.50		42.538E-03
			93.00		41.848E-03
			93.50		41.227E-03
			94.00		40.606E-03
			94.50		40.157E-03
			95.00		39.708E-03
			95.50		39.391E-03
			96.00		39.075E-03
			96.50		38.628E-03
			97.00		38.181E-03
			97.50		37.607E-03
			98.00		37.032E-03
			98.50		36.502E-03
			99.00		35.971E-03
			99.50		35.566E-03
			100.00		35.160E-03
			100.50		34.879E-03
			101.00		34.598E-03
		END_DATA
	END_SCAN  1
	BEGIN_SCAN  2
		TASK_NAME=tba PDD Profiles
		PROGRAM=WaterTankScans
		COMMENT=PDD + 5x X
		MEAS_DATE=09-Feb-2021 16:15:42
		LINAC=TRUEBEAMSN4791
		MODALITY=X
		ISOCENTER=1000.00
		INPLANE_AXIS=Y
		CROSSPLANE_AXIS=X
		DEPTH_AXIS=Depth
		INPLANE_AXIS_DIR=TARGET_GUN
		CROSSPLANE_AXIS_DIR=LEFT_RIGHT
		DEPTH_AXIS_DIR=UP_DOWN
		ENERGY=6.00
		NOMINAL_DMAX=15.00
		SSD=900.00
		SCD=450.00
		WEDGE_ANGLE=0.00
		FIELD_INPLANE=150.00
		FIELD_CROSSPLANE=150.00
		FIELD_TYPE=RECTANGULAR
		GANTRY=0.00
		GANTRY_UPRIGHT_POSITION=0
		GANTRY_ROTATION=CW
		COLL_ANGLE=0.00
		COLL_OFFSET_INPLANE=0.00
		COLL_OFFSET_CROSSPLANE=0.00
		SCAN_DEVICE=BeamScan
		SCAN_DEVICE_SETUP=BARA_LEFT_RIGHT
		ELECTROMETER=BeamScan
		RANGE_FIELD=LOW
		RANGE_REFERENCE=MEDIUM
		DETECTOR=THIMBLE_CHAMBER
		DETECTOR_SUBCODE=SEMIFLEX
		DETECTOR_RADIUS=2.40
		DETECTOR_NAME=PTW 31021 Semiflex 3D (1)
		DETECTOR_SN=142316
		DETECTOR_CALIBRATION=588000000.00
		DETECTOR_IS_CALIBRATED=1
		DETECTOR_REFERENCE=THIMBLE_CHAMBER
		DETECTOR_REFERENCE_SUBCODE=SEMIFLEX
		DETECTOR_REFERENCE_RADIUS=2.75
		DETECTOR_REFERENCE_NAME=PTW 31010 Semiflex (1)
		DETECTOR_REFERENCE_SN=ÃƒÆ’Ã‚Â¢ÃƒÂ¢Ã¢â‚¬Å¡Ã‚Â¬ÃƒÂ¢Ã¢â€šÂ¬
		DETECTOR_REFERENCE_IS_CALIBRATED=0
		DETECTOR_REFERENCE_CALIBRATION=303000000.00
		DETECTOR_HV=400.0
		DETECTOR_REFERENCE_HV=400.0
		DETECTOR_ORIENTATION=HORIZONTAL
		FILTER=FFF
		SCAN_SPEED_PROFILE=12.50
		SCAN_PROF_SPEED_DEP=DEPTH
		SCAN_SPEED_PDD=12.50
		SCAN_PDD_SPEED_DEP=ENERGY
		DETECTOR_TYPE=T31021
		REF_FIELD_DEPTH=100.00
		REF_FIELD_DEFINED=ISOCENTER
		REF_FIELD_INPLANE=100.00
		REF_FIELD_CROSSPLANE=100.00
		REF_SCAN_POSITIONS=-85.00;-84.00;-83.00;-82.00;-81.00;-80.00;-79.00;-78.00;-77.00;-76.00;-75.00;-74.00;-73.00;-72.00;-71.00;-70.00;-69.00;-68.00;-67.00;-66.00;-65.00;-64.00;-63.00;-62.00;-61.00;-60.00;-59.00;-58.00;-57.00;-56.00;-55.00;-54.00;-53.00;-52.00;-51.00;-50.00;-49.00;-48.00;-47.00;-46.00;-45.00;-44.00;-43.00;-42.00;-41.00;-40.00;-39.00;-38.00;-37.00;-36.00;-35.00;-34.00;-33.00;-32.00;-31.00;-30.00;-29.00;-28.00;-27.00;-26.00;-25.00;-24.00;-23.00;-22.00;-21.00;-20.00;-19.00;-18.00;-17.00;-16.00;-15.00;-14.00;-13.00;-12.00;-11.00;-10.00;-9.00;-8.00;-7.00;-6.00;-5.00;-4.00;-3.00;-2.00;-1.00;0.00;1.00;2.00;3.00;4.00;5.00;6.00;7.00;8.00;9.00;10.00;11.00;12.00;13.00;14.00;15.00;16.00;17.00;18.00;19.00;20.00;21.00;22.00;23.00;24.00;25.00;26.00;27.00;28.00;29.00;30.00;31.00;32.00;33.00;34.00;35.00;36.00;37.00;38.00;39.00;40.00;41.00;42.00;43.00;44.00;45.00;46.00;47.00;48.00;49.00;50.00;51.00;52.00;53.00;54.00;55.00;56.00;57.00;58.00;59.00;60.00;61.00;62.00;63.00;64.00;65.00;66.00;67.00;68.00;69.00;70.00;71.00;72.00;73.00;74.00;75.00;76.00;77.00;78.00;79.00;80.00;81.00;82.00;83.00;84.00;85.00;
		REF_OVERSCAN_FACTOR=1.00
		SCAN_CURVETYPE=CROSSPLANE_PROFILE
		SCAN_DEPTH=50.00
		SCAN_OFFAXIS_INPLANE=0.00
		SCAN_OFFAXIS_CROSSPLANE=0.00
		SCAN_ANGLE=0.00
		SCAN_DIAGONAL=NOT_DIAGONAL
		SCAN_DIRECTION=NEGATIVE
		MEAS_MEDIUM=WATER
		MEAS_PRESET=MEAS_CONTINUOUS_REFERENCE_SCAN
		MEAS_TIME=0.080
		MEAS_UNIT=A.U.
		INCLINATION_ANGLE=0.00
		PRESSURE=1013.25
		TEMPERATURE=20.00
		NORM_TEMPERATURE=20.00
		CORRECTION_FACTOR=1.0000
		EXPECTED_MAX_DOSE_RATE=3.00
		EPOM_DEPTH_SHIFT=0.2
		EPOM_MODE=SHIFT_PROTOCOL
		CORRECTIONS=SMOOTHED_CORR;SYMMETRY_CORR;INTERPOLATED_CORR;
		BEGIN_DATA
			-105.00		44.542E-03
			-104.50		45.088E-03
			-104.00		45.633E-03
			-103.50		46.301E-03
			-103.00		46.970E-03
			-102.50		47.497E-03
			-102.00		48.024E-03
			-101.50		48.735E-03
			-101.00		49.445E-03
			-100.50		50.089E-03
			-100.00		50.732E-03
			-99.50		51.324E-03
			-99.00		51.915E-03
			-98.50		52.831E-03
			-98.00		53.747E-03
			-97.50		54.334E-03
			-97.00		54.921E-03
			-96.50		55.734E-03
			-96.00		56.546E-03
			-95.50		57.545E-03
			-95.00		58.545E-03
			-94.50		59.519E-03
			-94.00		60.492E-03
			-93.50		61.329E-03
			-93.00		62.165E-03
			-92.50		63.229E-03
			-92.00		64.293E-03
			-91.50		65.552E-03
			-91.00		66.811E-03
			-90.50		67.951E-03
			-90.00		69.091E-03
			-89.50		70.497E-03
			-89.00		71.904E-03
			-88.50		72.983E-03
			-88.00		74.061E-03
			-87.50		75.526E-03
			-87.00		76.991E-03
			-86.50		78.480E-03
			-86.00		79.969E-03
			-85.50		81.480E-03
			-85.00		82.991E-03
			-84.50		84.949E-03
			-84.00		86.907E-03
			-83.50		88.751E-03
			-83.00		90.595E-03
			-82.50		93.070E-03
			-82.00		95.544E-03
			-81.50		98.267E-03
			-81.00		100.99E-03
			-80.50		104.05E-03
			-80.00		107.11E-03
			-79.50		110.90E-03
			-79.00		114.68E-03
			-78.50		119.87E-03
			-78.00		125.06E-03
			-77.50		132.24E-03
			-77.00		139.41E-03
			-76.50		150.09E-03
			-76.00		160.76E-03
			-75.50		179.75E-03
			-75.00		198.73E-03
			-74.50		234.44E-03
			-74.00		270.15E-03
			-73.50		326.56E-03
			-73.00		382.96E-03
			-72.50		455.04E-03
			-72.00		527.12E-03
			-71.50		608.04E-03
			-71.00		688.97E-03
			-70.50		765.78E-03
			-70.00		842.59E-03
			-69.50		905.35E-03
			-69.00		968.12E-03
			-68.50		1.0117E+00
			-68.00		1.0552E+00
			-67.50		1.0791E+00
			-67.00		1.1031E+00
			-66.50		1.1186E+00
			-66.00		1.1341E+00
			-65.50		1.1446E+00
			-65.00		1.1551E+00
			-64.50		1.1629E+00
			-64.00		1.1706E+00
			-63.50		1.1769E+00
			-63.00		1.1833E+00
			-62.50		1.1889E+00
			-62.00		1.1945E+00
			-61.50		1.1995E+00
			-61.00		1.2046E+00
			-60.50		1.2092E+00
			-60.00		1.2138E+00
			-59.50		1.2180E+00
			-59.00		1.2222E+00
			-58.50		1.2262E+00
			-58.00		1.2301E+00
			-57.50		1.2338E+00
			-57.00		1.2375E+00
			-56.50		1.2411E+00
			-56.00		1.2448E+00
			-55.50		1.2483E+00
			-55.00		1.2519E+00
			-54.50		1.2552E+00
			-54.00		1.2586E+00
			-53.50		1.2618E+00
			-53.00		1.2651E+00
			-52.50		1.2683E+00
			-52.00		1.2715E+00
			-51.50		1.2747E+00
			-51.00		1.2780E+00
			-50.50		1.2810E+00
			-50.00		1.2841E+00
			-49.50		1.2870E+00
			-49.00		1.2898E+00
			-48.50		1.2929E+00
			-48.00		1.2959E+00
			-47.50		1.2991E+00
			-47.00		1.3023E+00
			-46.50		1.3052E+00
			-46.00		1.3082E+00
			-45.50		1.3110E+00
			-45.00		1.3137E+00
			-44.50		1.3164E+00
			-44.00		1.3191E+00
			-43.50		1.3219E+00
			-43.00		1.3246E+00
			-42.50		1.3274E+00
			-42.00		1.3302E+00
			-41.50		1.3330E+00
			-41.00		1.3358E+00
			-40.50		1.3385E+00
			-40.00		1.3412E+00
			-39.50		1.3439E+00
			-39.00		1.3465E+00
			-38.50		1.3491E+00
			-38.00		1.3516E+00
			-37.50		1.3539E+00
			-37.00		1.3562E+00
			-36.50		1.3583E+00
			-36.00		1.3604E+00
			-35.50		1.3626E+00
			-35.00		1.3648E+00
			-34.50		1.3672E+00
			-34.00		1.3695E+00
			-33.50		1.3720E+00
			-33.00		1.3744E+00
			-32.50		1.3770E+00
			-32.00		1.3795E+00
			-31.50		1.3819E+00
			-31.00		1.3842E+00
			-30.50		1.3863E+00
			-30.00		1.3885E+00
			-29.50		1.3906E+00
			-29.00		1.3926E+00
			-28.50		1.3946E+00
			-28.00		1.3965E+00
			-27.50		1.3983E+00
			-27.00		1.4001E+00
			-26.50		1.4020E+00
			-26.00		1.4038E+00
			-25.50		1.4058E+00
			-25.00		1.4079E+00
			-24.50		1.4100E+00
			-24.00		1.4122E+00
			-23.50		1.4143E+00
			-23.00		1.4164E+00
			-22.50		1.4183E+00
			-22.00		1.4202E+00
			-21.50		1.4218E+00
			-21.00		1.4233E+00
			-20.50		1.4246E+00
			-20.00		1.4258E+00
			-19.50		1.4270E+00
			-19.00		1.4283E+00
			-18.50		1.4299E+00
			-18.00		1.4316E+00
			-17.50		1.4333E+00
			-17.00		1.4351E+00
			-16.50		1.4365E+00
			-16.00		1.4379E+00
			-15.50		1.4390E+00
			-15.00		1.4401E+00
			-14.50		1.4410E+00
			-14.00		1.4419E+00
			-13.50		1.4428E+00
			-13.00		1.4437E+00
			-12.50		1.4447E+00
			-12.00		1.4457E+00
			-11.50		1.4468E+00
			-11.00		1.4478E+00
			-10.50		1.4488E+00
			-10.00		1.4497E+00
			-9.50		1.4507E+00
			-9.00		1.4518E+00
			-8.50		1.4530E+00
			-8.00		1.4541E+00
			-7.50		1.4549E+00
			-7.00		1.4557E+00
			-6.50		1.4562E+00
			-6.00		1.4566E+00
			-5.50		1.4569E+00
			-5.00		1.4573E+00
			-4.50		1.4578E+00
			-4.00		1.4583E+00
			-3.50		1.4586E+00
			-3.00		1.4589E+00
			-2.50		1.4589E+00
			-2.00		1.4589E+00
			-1.50		1.4587E+00
			-1.00		1.4585E+00
			-0.50		1.4585E+00
			0.00		1.4584E+00
			0.50		1.4585E+00
			1.00		1.4585E+00
			1.50		1.4587E+00
			2.00		1.4589E+00
			2.50		1.4589E+00
			3.00		1.4589E+00
			3.50		1.4586E+00
			4.00		1.4583E+00
			4.50		1.4578E+00
			5.00		1.4573E+00
			5.50		1.4569E+00
			6.00		1.4566E+00
			6.50		1.4562E+00
			7.00		1.4557E+00
			7.50		1.4549E+00
			8.00		1.4541E+00
			8.50		1.4530E+00
			9.00		1.4518E+00
			9.50		1.4507E+00
			10.00		1.4497E+00
			10.50		1.4488E+00
			11.00		1.4478E+00
			11.50		1.4468E+00
			12.00		1.4457E+00
			12.50		1.4447E+00
			13.00		1.4437E+00
			13.50		1.4428E+00
			14.00		1.4419E+00
			14.50		1.4410E+00
			15.00		1.4401E+00
			15.50		1.4390E+00
			16.00		1.4379E+00
			16.50		1.4365E+00
			17.00		1.4351E+00
			17.50		1.4333E+00
			18.00		1.4316E+00
			18.50		1.4299E+00
			19.00		1.4283E+00
			19.50		1.4270E+00
			20.00		1.4258E+00
			20.50		1.4246E+00
			21.00		1.4233E+00
			21.50		1.4218E+00
			22.00		1.4202E+00
			22.50		1.4183E+00
			23.00		1.4164E+00
			23.50		1.4143E+00
			24.00		1.4122E+00
			24.50		1.4100E+00
			25.00		1.4079E+00
			25.50		1.4058E+00
			26.00		1.4038E+00
			26.50		1.4020E+00
			27.00		1.4001E+00
			27.50		1.3983E+00
			28.00		1.3965E+00
			28.50		1.3946E+00
			29.00		1.3926E+00
			29.50		1.3906E+00
			30.00		1.3885E+00
			30.50		1.3863E+00
			31.00		1.3842E+00
			31.50		1.3819E+00
			32.00		1.3795E+00
			32.50		1.3770E+00
			33.00		1.3744E+00
			33.50		1.3720E+00
			34.00		1.3695E+00
			34.50		1.3672E+00
			35.00		1.3648E+00
			35.50		1.3626E+00
			36.00		1.3604E+00
			36.50		1.3583E+00
			37.00		1.3562E+00
			37.50		1.3539E+00
			38.00		1.3516E+00
			38.50		1.3491E+00
			39.00		1.3465E+00
			39.50		1.3439E+00
			40.00		1.3412E+00
			40.50		1.3385E+00
			41.00		1.3358E+00
			41.50		1.3330E+00
			42.00		1.3302E+00
			42.50		1.3274E+00
			43.00		1.3246E+00
			43.50		1.3219E+00
			44.00		1.3191E+00
			44.50		1.3164E+00
			45.00		1.3137E+00
			45.50		1.3110E+00
			46.00		1.3082E+00
			46.50		1.3052E+00
			47.00		1.3023E+00
			47.50		1.2991E+00
			48.00		1.2959E+00
			48.50		1.2929E+00
			49.00		1.2898E+00
			49.50		1.2870E+00
			50.00		1.2841E+00
			50.50		1.2810E+00
			51.00		1.2780E+00
			51.50		1.2747E+00
			52.00		1.2715E+00
			52.50		1.2683E+00
			53.00		1.2651E+00
			53.50		1.2618E+00
			54.00		1.2586E+00
			54.50		1.2552E+00
			55.00		1.2519E+00
			55.50		1.2483E+00
			56.00		1.2448E+00
			56.50		1.2411E+00
			57.00		1.2375E+00
			57.50		1.2338E+00
			58.00		1.2301E+00
			58.50		1.2262E+00
			59.00		1.2222E+00
			59.50		1.2180E+00
			60.00		1.2138E+00
			60.50		1.2092E+00
			61.00		1.2046E+00
			61.50		1.1995E+00
			62.00		1.1945E+00
			62.50		1.1889E+00
			63.00		1.1833E+00
			63.50		1.1769E+00
			64.00		1.1706E+00
			64.50		1.1629E+00
			65.00		1.1551E+00
			65.50		1.1446E+00
			66.00		1.1341E+00
			66.50		1.1186E+00
			67.00		1.1031E+00
			67.50		1.0791E+00
			68.00		1.0552E+00
			68.50		1.0117E+00
			69.00		968.12E-03
			69.50		905.35E-03
			70.00		842.59E-03
			70.50		765.78E-03
			71.00		688.97E-03
			71.50		608.04E-03
			72.00		527.12E-03
			72.50		455.04E-03
			73.00		382.96E-03
			73.50		326.56E-03
			74.00		270.15E-03
			74.50		234.44E-03
			75.00		198.73E-03
			75.50		179.75E-03
			76.00		160.76E-03
			76.50		150.09E-03
			77.00		139.41E-03
			77.50		132.24E-03
			78.00		125.06E-03
			78.50		119.87E-03
			79.00		114.68E-03
			79.50		110.90E-03
			80.00		107.11E-03
			80.50		104.05E-03
			81.00		100.99E-03
			81.50		98.267E-03
			82.00		95.544E-03
			82.50		93.070E-03
			83.00		90.595E-03
			83.50		88.751E-03
			84.00		86.907E-03
			84.50		84.949E-03
			85.00		82.991E-03
			85.50		81.480E-03
			86.00		79.969E-03
			86.50		78.480E-03
			87.00		76.991E-03
			87.50		75.526E-03
			88.00		74.061E-03
			88.50		72.983E-03
			89.00		71.904E-03
			89.50		70.497E-03
			90.00		69.091E-03
			90.50		67.951E-03
			91.00		66.811E-03
			91.50		65.552E-03
			92.00		64.293E-03
			92.50		63.229E-03
			93.00		62.165E-03
			93.50		61.329E-03
			94.00		60.492E-03
			94.50		59.519E-03
			95.00		58.545E-03
			95.50		57.545E-03
			96.00		56.546E-03
			96.50		55.734E-03
			97.00		54.921E-03
			97.50		54.334E-03
			98.00		53.747E-03
			98.50		52.831E-03
			99.00		51.915E-03
			99.50		51.324E-03
			100.00		50.732E-03
			100.50		50.089E-03
			101.00		49.445E-03
			101.50		48.735E-03
			102.00		48.024E-03
			102.50		47.497E-03
			103.00		46.970E-03
			103.50		46.301E-03
			104.00		45.633E-03
			104.50		45.088E-03
			105.00		44.542E-03
		END_DATA
	END_SCAN  2
	BEGIN_SCAN  3
		TASK_NAME=tba PDD Profiles
		PROGRAM=WaterTankScans
		COMMENT=PDD + 5x X
		MEAS_DATE=09-Feb-2021 16:16:02
		LINAC=TRUEBEAMSN4791
		MODALITY=X
		ISOCENTER=1000.00
		INPLANE_AXIS=Y
		CROSSPLANE_AXIS=X
		DEPTH_AXIS=Depth
		INPLANE_AXIS_DIR=TARGET_GUN
		CROSSPLANE_AXIS_DIR=LEFT_RIGHT
		DEPTH_AXIS_DIR=UP_DOWN
		ENERGY=6.00
		NOMINAL_DMAX=15.00
		SSD=900.00
		SCD=450.00
		WEDGE_ANGLE=0.00
		FIELD_INPLANE=150.00
		FIELD_CROSSPLANE=150.00
		FIELD_TYPE=RECTANGULAR
		GANTRY=0.00
		GANTRY_UPRIGHT_POSITION=0
		GANTRY_ROTATION=CW
		COLL_ANGLE=0.00
		COLL_OFFSET_INPLANE=0.00
		COLL_OFFSET_CROSSPLANE=0.00
		SCAN_DEVICE=BeamScan
		SCAN_DEVICE_SETUP=BARA_LEFT_RIGHT
		ELECTROMETER=BeamScan
		RANGE_FIELD=LOW
		RANGE_REFERENCE=MEDIUM
		DETECTOR=THIMBLE_CHAMBER
		DETECTOR_SUBCODE=SEMIFLEX
		DETECTOR_RADIUS=2.40
		DETECTOR_NAME=PTW 31021 Semiflex 3D (1)
		DETECTOR_SN=142316
		DETECTOR_CALIBRATION=588000000.00
		DETECTOR_IS_CALIBRATED=1
		DETECTOR_REFERENCE=THIMBLE_CHAMBER
		DETECTOR_REFERENCE_SUBCODE=SEMIFLEX
		DETECTOR_REFERENCE_RADIUS=2.75
		DETECTOR_REFERENCE_NAME=PTW 31010 Semiflex (1)
		DETECTOR_REFERENCE_SN=ÃƒÆ’Ã‚Â¢ÃƒÂ¢Ã¢â‚¬Å¡Ã‚Â¬ÃƒÂ¢Ã¢â€šÂ¬
		DETECTOR_REFERENCE_IS_CALIBRATED=0
		DETECTOR_REFERENCE_CALIBRATION=303000000.00
		DETECTOR_HV=400.0
		DETECTOR_REFERENCE_HV=400.0
		DETECTOR_ORIENTATION=HORIZONTAL
		FILTER=FFF
		SCAN_SPEED_PROFILE=12.50
		SCAN_PROF_SPEED_DEP=DEPTH
		SCAN_SPEED_PDD=12.50
		SCAN_PDD_SPEED_DEP=ENERGY
		DETECTOR_TYPE=T31021
		REF_FIELD_DEPTH=100.00
		REF_FIELD_DEFINED=ISOCENTER
		REF_FIELD_INPLANE=100.00
		REF_FIELD_CROSSPLANE=100.00
		REF_SCAN_POSITIONS=-85.00;-84.00;-83.00;-82.00;-81.00;-80.00;-79.00;-78.00;-77.00;-76.00;-75.00;-74.00;-73.00;-72.00;-71.00;-70.00;-69.00;-68.00;-67.00;-66.00;-65.00;-64.00;-63.00;-62.00;-61.00;-60.00;-59.00;-58.00;-57.00;-56.00;-55.00;-54.00;-53.00;-52.00;-51.00;-50.00;-49.00;-48.00;-47.00;-46.00;-45.00;-44.00;-43.00;-42.00;-41.00;-40.00;-39.00;-38.00;-37.00;-36.00;-35.00;-34.00;-33.00;-32.00;-31.00;-30.00;-29.00;-28.00;-27.00;-26.00;-25.00;-24.00;-23.00;-22.00;-21.00;-20.00;-19.00;-18.00;-17.00;-16.00;-15.00;-14.00;-13.00;-12.00;-11.00;-10.00;-9.00;-8.00;-7.00;-6.00;-5.00;-4.00;-3.00;-2.00;-1.00;0.00;1.00;2.00;3.00;4.00;5.00;6.00;7.00;8.00;9.00;10.00;11.00;12.00;13.00;14.00;15.00;16.00;17.00;18.00;19.00;20.00;21.00;22.00;23.00;24.00;25.00;26.00;27.00;28.00;29.00;30.00;31.00;32.00;33.00;34.00;35.00;36.00;37.00;38.00;39.00;40.00;41.00;42.00;43.00;44.00;45.00;46.00;47.00;48.00;49.00;50.00;51.00;52.00;53.00;54.00;55.00;56.00;57.00;58.00;59.00;60.00;61.00;62.00;63.00;64.00;65.00;66.00;67.00;68.00;69.00;70.00;71.00;72.00;73.00;74.00;75.00;76.00;77.00;78.00;79.00;80.00;81.00;82.00;83.00;84.00;85.00;
		REF_OVERSCAN_FACTOR=1.00
		SCAN_CURVETYPE=CROSSPLANE_PROFILE
		SCAN_DEPTH=100.00
		SCAN_OFFAXIS_INPLANE=0.00
		SCAN_OFFAXIS_CROSSPLANE=0.00
		SCAN_ANGLE=0.00
		SCAN_DIAGONAL=NOT_DIAGONAL
		SCAN_DIRECTION=POSITIVE
		MEAS_MEDIUM=WATER
		MEAS_PRESET=MEAS_CONTINUOUS_REFERENCE_SCAN
		MEAS_TIME=0.080
		MEAS_UNIT=A.U.
		INCLINATION_ANGLE=0.00
		PRESSURE=1013.25
		TEMPERATURE=20.00
		NORM_TEMPERATURE=20.00
		CORRECTION_FACTOR=1.0000
		EXPECTED_MAX_DOSE_RATE=3.00
		EPOM_DEPTH_SHIFT=0.2
		EPOM_MODE=SHIFT_PROTOCOL
		CORRECTIONS=SMOOTHED_CORR;SYMMETRY_CORR;INTERPOLATED_CORR;
		BEGIN_DATA
			-110.00		53.360E-03
			-109.50		54.155E-03
			-109.00		54.949E-03
			-108.50		55.656E-03
			-108.00		56.362E-03
			-107.50		56.887E-03
			-107.00		57.411E-03
			-106.50		58.141E-03
			-106.00		58.870E-03
			-105.50		59.709E-03
			-105.00		60.549E-03
			-104.50		61.376E-03
			-104.00		62.203E-03
			-103.50		63.019E-03
			-103.00		63.834E-03
			-102.50		64.740E-03
			-102.00		65.646E-03
			-101.50		66.453E-03
			-101.00		67.260E-03
			-100.50		68.174E-03
			-100.00		69.089E-03
			-99.50		70.123E-03
			-99.00		71.156E-03
			-98.50		72.053E-03
			-98.00		72.950E-03
			-97.50		74.176E-03
			-97.00		75.402E-03
			-96.50		76.412E-03
			-96.00		77.423E-03
			-95.50		78.591E-03
			-95.00		79.760E-03
			-94.50		81.267E-03
			-94.00		82.773E-03
			-93.50		83.779E-03
			-93.00		84.785E-03
			-92.50		86.247E-03
			-92.00		87.709E-03
			-91.50		89.169E-03
			-91.00		90.628E-03
			-90.50		91.824E-03
			-90.00		93.019E-03
			-89.50		94.742E-03
			-89.00		96.464E-03
			-88.50		98.200E-03
			-88.00		99.936E-03
			-87.50		101.60E-03
			-87.00		103.27E-03
			-86.50		105.21E-03
			-86.00		107.16E-03
			-85.50		109.57E-03
			-85.00		111.97E-03
			-84.50		114.65E-03
			-84.00		117.33E-03
			-83.50		120.35E-03
			-83.00		123.37E-03
			-82.50		127.31E-03
			-82.00		131.24E-03
			-81.50		136.45E-03
			-81.00		141.65E-03
			-80.50		149.54E-03
			-80.00		157.42E-03
			-79.50		169.60E-03
			-79.00		181.77E-03
			-78.50		204.08E-03
			-78.00		226.40E-03
			-77.50		261.33E-03
			-77.00		296.25E-03
			-76.50		342.40E-03
			-76.00		388.55E-03
			-75.50		441.83E-03
			-75.00		495.12E-03
			-74.50		547.80E-03
			-74.00		600.48E-03
			-73.50		646.65E-03
			-73.00		692.82E-03
			-72.50		726.52E-03
			-72.00		760.22E-03
			-71.50		781.15E-03
			-71.00		802.08E-03
			-70.50		814.84E-03
			-70.00		827.61E-03
			-69.50		836.99E-03
			-69.00		846.37E-03
			-68.50		853.04E-03
			-68.00		859.72E-03
			-67.50		864.08E-03
			-67.00		868.45E-03
			-66.50		872.53E-03
			-66.00		876.61E-03
			-65.50		880.48E-03
			-65.00		884.36E-03
			-64.50		888.14E-03
			-64.00		891.93E-03
			-63.50		895.46E-03
			-63.00		898.99E-03
			-62.50		902.24E-03
			-62.00		905.48E-03
			-61.50		908.67E-03
			-61.00		911.86E-03
			-60.50		915.02E-03
			-60.00		918.18E-03
			-59.50		921.22E-03
			-59.00		924.26E-03
			-58.50		927.10E-03
			-58.00		929.94E-03
			-57.50		932.58E-03
			-57.00		935.22E-03
			-56.50		937.80E-03
			-56.00		940.38E-03
			-55.50		943.08E-03
			-55.00		945.78E-03
			-54.50		948.52E-03
			-54.00		951.27E-03
			-53.50		953.78E-03
			-53.00		956.29E-03
			-52.50		958.46E-03
			-52.00		960.64E-03
			-51.50		962.73E-03
			-51.00		964.83E-03
			-50.50		967.08E-03
			-50.00		969.33E-03
			-49.50		971.78E-03
			-49.00		974.23E-03
			-48.50		976.86E-03
			-48.00		979.48E-03
			-47.50		982.00E-03
			-47.00		984.52E-03
			-46.50		986.71E-03
			-46.00		988.89E-03
			-45.50		990.95E-03
			-45.00		993.01E-03
			-44.50		995.18E-03
			-44.00		997.34E-03
			-43.50		999.52E-03
			-43.00		1.0017E+00
			-42.50		1.0037E+00
			-42.00		1.0057E+00
			-41.50		1.0076E+00
			-41.00		1.0095E+00
			-40.50		1.0114E+00
			-40.00		1.0133E+00
			-39.50		1.0152E+00
			-39.00		1.0171E+00
			-38.50		1.0191E+00
			-38.00		1.0211E+00
			-37.50		1.0230E+00
			-37.00		1.0249E+00
			-36.50		1.0266E+00
			-36.00		1.0282E+00
			-35.50		1.0300E+00
			-35.00		1.0317E+00
			-34.50		1.0335E+00
			-34.00		1.0353E+00
			-33.50		1.0373E+00
			-33.00		1.0392E+00
			-32.50		1.0411E+00
			-32.00		1.0431E+00
			-31.50		1.0448E+00
			-31.00		1.0466E+00
			-30.50		1.0481E+00
			-30.00		1.0496E+00
			-29.50		1.0510E+00
			-29.00		1.0524E+00
			-28.50		1.0539E+00
			-28.00		1.0554E+00
			-27.50		1.0570E+00
			-27.00		1.0586E+00
			-26.50		1.0601E+00
			-26.00		1.0617E+00
			-25.50		1.0631E+00
			-25.00		1.0644E+00
			-24.50		1.0655E+00
			-24.00		1.0666E+00
			-23.50		1.0678E+00
			-23.00		1.0691E+00
			-22.50		1.0706E+00
			-22.00		1.0721E+00
			-21.50		1.0735E+00
			-21.00		1.0749E+00
			-20.50		1.0760E+00
			-20.00		1.0771E+00
			-19.50		1.0781E+00
			-19.00		1.0791E+00
			-18.50		1.0802E+00
			-18.00		1.0812E+00
			-17.50		1.0822E+00
			-17.00		1.0833E+00
			-16.50		1.0843E+00
			-16.00		1.0854E+00
			-15.50		1.0863E+00
			-15.00		1.0872E+00
			-14.50		1.0879E+00
			-14.00		1.0886E+00
			-13.50		1.0892E+00
			-13.00		1.0898E+00
			-12.50		1.0905E+00
			-12.00		1.0912E+00
			-11.50		1.0921E+00
			-11.00		1.0929E+00
			-10.50		1.0938E+00
			-10.00		1.0947E+00
			-9.50		1.0955E+00
			-9.00		1.0963E+00
			-8.50		1.0967E+00
			-8.00		1.0971E+00
			-7.50		1.0973E+00
			-7.00		1.0975E+00
			-6.50		1.0978E+00
			-6.00		1.0982E+00
			-5.50		1.0985E+00
			-5.00		1.0989E+00
			-4.50		1.0992E+00
			-4.00		1.0996E+00
			-3.50		1.0997E+00
			-3.00		1.0998E+00
			-2.50		1.0998E+00
			-2.00		1.0999E+00
			-1.50		1.1000E+00
			-1.00		1.1000E+00
			-0.50		1.1000E+00
			0.00		1.1000E+00
			0.50		1.1000E+00
			1.00		1.1000E+00
			1.50		1.1000E+00
			2.00		1.0999E+00
			2.50		1.0998E+00
			3.00		1.0998E+00
			3.50		1.0997E+00
			4.00		1.0996E+00
			4.50		1.0992E+00
			5.00		1.0989E+00
			5.50		1.0985E+00
			6.00		1.0982E+00
			6.50		1.0978E+00
			7.00		1.0975E+00
			7.50		1.0973E+00
			8.00		1.0971E+00
			8.50		1.0967E+00
			9.00		1.0963E+00
			9.50		1.0955E+00
			10.00		1.0947E+00
			10.50		1.0938E+00
			11.00		1.0929E+00
			11.50		1.0921E+00
			12.00		1.0912E+00
			12.50		1.0905E+00
			13.00		1.0898E+00
			13.50		1.0892E+00
			14.00		1.0886E+00
			14.50		1.0879E+00
			15.00		1.0872E+00
			15.50		1.0863E+00
			16.00		1.0854E+00
			16.50		1.0843E+00
			17.00		1.0833E+00
			17.50		1.0822E+00
			18.00		1.0812E+00
			18.50		1.0802E+00
			19.00		1.0791E+00
			19.50		1.0781E+00
			20.00		1.0771E+00
			20.50		1.0760E+00
			21.00		1.0749E+00
			21.50		1.0735E+00
			22.00		1.0721E+00
			22.50		1.0706E+00
			23.00		1.0691E+00
			23.50		1.0678E+00
			24.00		1.0666E+00
			24.50		1.0655E+00
			25.00		1.0644E+00
			25.50		1.0631E+00
			26.00		1.0617E+00
			26.50		1.0601E+00
			27.00		1.0586E+00
			27.50		1.0570E+00
			28.00		1.0554E+00
			28.50		1.0539E+00
			29.00		1.0524E+00
			29.50		1.0510E+00
			30.00		1.0496E+00
			30.50		1.0481E+00
			31.00		1.0466E+00
			31.50		1.0448E+00
			32.00		1.0431E+00
			32.50		1.0411E+00
			33.00		1.0392E+00
			33.50		1.0373E+00
			34.00		1.0353E+00
			34.50		1.0335E+00
			35.00		1.0317E+00
			35.50		1.0300E+00
			36.00		1.0282E+00
			36.50		1.0266E+00
			37.00		1.0249E+00
			37.50		1.0230E+00
			38.00		1.0211E+00
			38.50		1.0191E+00
			39.00		1.0171E+00
			39.50		1.0152E+00
			40.00		1.0133E+00
			40.50		1.0114E+00
			41.00		1.0095E+00
			41.50		1.0076E+00
			42.00		1.0057E+00
			42.50		1.0037E+00
			43.00		1.0017E+00
			43.50		999.52E-03
			44.00		997.34E-03
			44.50		995.18E-03
			45.00		993.01E-03
			45.50		990.95E-03
			46.00		988.89E-03
			46.50		986.71E-03
			47.00		984.52E-03
			47.50		982.00E-03
			48.00		979.48E-03
			48.50		976.86E-03
			49.00		974.23E-03
			49.50		971.78E-03
			50.00		969.33E-03
			50.50		967.08E-03
			51.00		964.83E-03
			51.50		962.73E-03
			52.00		960.64E-03
			52.50		958.46E-03
			53.00		956.29E-03
			53.50		953.78E-03
			54.00		951.27E-03
			54.50		948.52E-03
			55.00		945.78E-03
			55.50		943.08E-03
			56.00		940.38E-03
			56.50		937.80E-03
			57.00		935.22E-03
			57.50		932.58E-03
			58.00		929.94E-03
			58.50		927.10E-03
			59.00		924.26E-03
			59.50		921.22E-03
			60.00		918.18E-03
			60.50		915.02E-03
			61.00		911.86E-03
			61.50		908.67E-03
			62.00		905.48E-03
			62.50		902.24E-03
			63.00		898.99E-03
			63.50		895.46E-03
			64.00		891.93E-03
			64.50		888.14E-03
			65.00		884.36E-03
			65.50		880.48E-03
			66.00		876.61E-03
			66.50		872.53E-03
			67.00		868.45E-03
			67.50		864.08E-03
			68.00		859.72E-03
			68.50		853.04E-03
			69.00		846.37E-03
			69.50		836.99E-03
			70.00		827.61E-03
			70.50		814.84E-03
			71.00		802.08E-03
			71.50		781.15E-03
			72.00		760.22E-03
			72.50		726.52E-03
			73.00		692.82E-03
			73.50		646.65E-03
			74.00		600.48E-03
			74.50		547.80E-03
			75.00		495.12E-03
			75.50		441.83E-03
			76.00		388.55E-03
			76.50		342.40E-03
			77.00		296.25E-03
			77.50		261.33E-03
			78.00		226.40E-03
			78.50		204.08E-03
			79.00		181.77E-03
			79.50		169.60E-03
			80.00		157.42E-03
			80.50		149.54E-03
			81.00		141.65E-03
			81.50		136.45E-03
			82.00		131.24E-03
			82.50		127.31E-03
			83.00		123.37E-03
			83.50		120.35E-03
			84.00		117.33E-03
			84.50		114.65E-03
			85.00		111.97E-03
			85.50		109.57E-03
			86.00		107.16E-03
			86.50		105.21E-03
			87.00		103.27E-03
			87.50		101.60E-03
			88.00		99.936E-03
			88.50		98.200E-03
			89.00		96.464E-03
			89.50		94.742E-03
			90.00		93.019E-03
			90.50		91.824E-03
			91.00		90.628E-03
			91.50		89.169E-03
			92.00		87.709E-03
			92.50		86.247E-03
			93.00		84.785E-03
			93.50		83.779E-03
			94.00		82.773E-03
			94.50		81.267E-03
			95.00		79.760E-03
			95.50		78.591E-03
			96.00		77.423E-03
			96.50		76.412E-03
			97.00		75.402E-03
			97.50		74.176E-03
			98.00		72.950E-03
			98.50		72.053E-03
			99.00		71.156E-03
			99.50		70.123E-03
			100.00		69.089E-03
			100.50		68.174E-03
			101.00		67.260E-03
			101.50		66.453E-03
			102.00		65.646E-03
			102.50		64.740E-03
			103.00		63.834E-03
			103.50		63.019E-03
			104.00		62.203E-03
			104.50		61.376E-03
			105.00		60.549E-03
			105.50		59.709E-03
			106.00		58.870E-03
			106.50		58.141E-03
			107.00		57.411E-03
			107.50		56.887E-03
			108.00		56.362E-03
			108.50		55.656E-03
			109.00		54.949E-03
			109.50		54.155E-03
			110.00		53.360E-03
		END_DATA
	END_SCAN  3
	BEGIN_SCAN  4
		TASK_NAME=tba PDD Profiles
		PROGRAM=WaterTankScans
		COMMENT=PDD + 5x X
		MEAS_DATE=09-Feb-2021 16:16:24
		LINAC=TRUEBEAMSN4791
		MODALITY=X
		ISOCENTER=1000.00
		INPLANE_AXIS=Y
		CROSSPLANE_AXIS=X
		DEPTH_AXIS=Depth
		INPLANE_AXIS_DIR=TARGET_GUN
		CROSSPLANE_AXIS_DIR=LEFT_RIGHT
		DEPTH_AXIS_DIR=UP_DOWN
		ENERGY=6.00
		NOMINAL_DMAX=15.00
		SSD=900.00
		SCD=450.00
		WEDGE_ANGLE=0.00
		FIELD_INPLANE=150.00
		FIELD_CROSSPLANE=150.00
		FIELD_TYPE=RECTANGULAR
		GANTRY=0.00
		GANTRY_UPRIGHT_POSITION=0
		GANTRY_ROTATION=CW
		COLL_ANGLE=0.00
		COLL_OFFSET_INPLANE=0.00
		COLL_OFFSET_CROSSPLANE=0.00
		SCAN_DEVICE=BeamScan
		SCAN_DEVICE_SETUP=BARA_LEFT_RIGHT
		ELECTROMETER=BeamScan
		RANGE_FIELD=LOW
		RANGE_REFERENCE=MEDIUM
		DETECTOR=THIMBLE_CHAMBER
		DETECTOR_SUBCODE=SEMIFLEX
		DETECTOR_RADIUS=2.40
		DETECTOR_NAME=PTW 31021 Semiflex 3D (1)
		DETECTOR_SN=142316
		DETECTOR_CALIBRATION=588000000.00
		DETECTOR_IS_CALIBRATED=1
		DETECTOR_REFERENCE=THIMBLE_CHAMBER
		DETECTOR_REFERENCE_SUBCODE=SEMIFLEX
		DETECTOR_REFERENCE_RADIUS=2.75
		DETECTOR_REFERENCE_NAME=PTW 31010 Semiflex (1)
		DETECTOR_REFERENCE_SN=ÃƒÆ’Ã‚Â¢ÃƒÂ¢Ã¢â‚¬Å¡Ã‚Â¬ÃƒÂ¢Ã¢â€šÂ¬
		DETECTOR_REFERENCE_IS_CALIBRATED=0
		DETECTOR_REFERENCE_CALIBRATION=303000000.00
		DETECTOR_HV=400.0
		DETECTOR_REFERENCE_HV=400.0
		DETECTOR_ORIENTATION=HORIZONTAL
		FILTER=FFF
		SCAN_SPEED_PROFILE=12.50
		SCAN_PROF_SPEED_DEP=DEPTH
		SCAN_SPEED_PDD=12.50
		SCAN_PDD_SPEED_DEP=ENERGY
		DETECTOR_TYPE=T31021
		REF_FIELD_DEPTH=100.00
		REF_FIELD_DEFINED=ISOCENTER
		REF_FIELD_INPLANE=100.00
		REF_FIELD_CROSSPLANE=100.00
		REF_SCAN_POSITIONS=-85.00;-84.00;-83.00;-82.00;-81.00;-80.00;-79.00;-78.00;-77.00;-76.00;-75.00;-74.00;-73.00;-72.00;-71.00;-70.00;-69.00;-68.00;-67.00;-66.00;-65.00;-64.00;-63.00;-62.00;-61.00;-60.00;-59.00;-58.00;-57.00;-56.00;-55.00;-54.00;-53.00;-52.00;-51.00;-50.00;-49.00;-48.00;-47.00;-46.00;-45.00;-44.00;-43.00;-42.00;-41.00;-40.00;-39.00;-38.00;-37.00;-36.00;-35.00;-34.00;-33.00;-32.00;-31.00;-30.00;-29.00;-28.00;-27.00;-26.00;-25.00;-24.00;-23.00;-22.00;-21.00;-20.00;-19.00;-18.00;-17.00;-16.00;-15.00;-14.00;-13.00;-12.00;-11.00;-10.00;-9.00;-8.00;-7.00;-6.00;-5.00;-4.00;-3.00;-2.00;-1.00;0.00;1.00;2.00;3.00;4.00;5.00;6.00;7.00;8.00;9.00;10.00;11.00;12.00;13.00;14.00;15.00;16.00;17.00;18.00;19.00;20.00;21.00;22.00;23.00;24.00;25.00;26.00;27.00;28.00;29.00;30.00;31.00;32.00;33.00;34.00;35.00;36.00;37.00;38.00;39.00;40.00;41.00;42.00;43.00;44.00;45.00;46.00;47.00;48.00;49.00;50.00;51.00;52.00;53.00;54.00;55.00;56.00;57.00;58.00;59.00;60.00;61.00;62.00;63.00;64.00;65.00;66.00;67.00;68.00;69.00;70.00;71.00;72.00;73.00;74.00;75.00;76.00;77.00;78.00;79.00;80.00;81.00;82.00;83.00;84.00;85.00;
		REF_OVERSCAN_FACTOR=1.00
		SCAN_CURVETYPE=CROSSPLANE_PROFILE
		SCAN_DEPTH=200.00
		SCAN_OFFAXIS_INPLANE=0.00
		SCAN_OFFAXIS_CROSSPLANE=0.00
		SCAN_ANGLE=0.00
		SCAN_DIAGONAL=NOT_DIAGONAL
		SCAN_DIRECTION=NEGATIVE
		MEAS_MEDIUM=WATER
		MEAS_PRESET=MEAS_CONTINUOUS_REFERENCE_SCAN
		MEAS_TIME=0.080
		MEAS_UNIT=A.U.
		INCLINATION_ANGLE=0.00
		PRESSURE=1013.25
		TEMPERATURE=20.00
		NORM_TEMPERATURE=20.00
		CORRECTION_FACTOR=1.0000
		EXPECTED_MAX_DOSE_RATE=3.00
		EPOM_DEPTH_SHIFT=0.2
		EPOM_MODE=SHIFT_PROTOCOL
		CORRECTIONS=SMOOTHED_CORR;SYMMETRY_CORR;INTERPOLATED_CORR;
		BEGIN_DATA
			-121.00		46.819E-03
			-120.50		47.319E-03
			-120.00		47.819E-03
			-119.50		48.146E-03
			-119.00		48.473E-03
			-118.50		49.057E-03
			-118.00		49.640E-03
			-117.50		50.105E-03
			-117.00		50.571E-03
			-116.50		51.070E-03
			-116.00		51.569E-03
			-115.50		52.148E-03
			-115.00		52.728E-03
			-114.50		53.300E-03
			-114.00		53.873E-03
			-113.50		54.436E-03
			-113.00		55.000E-03
			-112.50		55.524E-03
			-112.00		56.048E-03
			-111.50		56.718E-03
			-111.00		57.389E-03
			-110.50		58.044E-03
			-110.00		58.699E-03
			-109.50		59.330E-03
			-109.00		59.960E-03
			-108.50		60.457E-03
			-108.00		60.955E-03
			-107.50		61.861E-03
			-107.00		62.767E-03
			-106.50		63.449E-03
			-106.00		64.131E-03
			-105.50		64.780E-03
			-105.00		65.429E-03
			-104.50		66.064E-03
			-104.00		66.700E-03
			-103.50		67.561E-03
			-103.00		68.422E-03
			-102.50		69.210E-03
			-102.00		69.997E-03
			-101.50		70.776E-03
			-101.00		71.555E-03
			-100.50		72.420E-03
			-100.00		73.284E-03
			-99.50		74.024E-03
			-99.00		74.763E-03
			-98.50		75.585E-03
			-98.00		76.406E-03
			-97.50		77.454E-03
			-97.00		78.502E-03
			-96.50		79.597E-03
			-96.00		80.691E-03
			-95.50		81.815E-03
			-95.00		82.940E-03
			-94.50		84.145E-03
			-94.00		85.350E-03
			-93.50		86.711E-03
			-93.00		88.072E-03
			-92.50		89.471E-03
			-92.00		90.869E-03
			-91.50		92.496E-03
			-91.00		94.124E-03
			-90.50		96.056E-03
			-90.00		97.987E-03
			-89.50		100.69E-03
			-89.00		103.40E-03
			-88.50		106.81E-03
			-88.00		110.23E-03
			-87.50		115.67E-03
			-87.00		121.10E-03
			-86.50		129.93E-03
			-86.00		138.77E-03
			-85.50		152.76E-03
			-85.00		166.75E-03
			-84.50		186.53E-03
			-84.00		206.31E-03
			-83.50		230.61E-03
			-83.00		254.90E-03
			-82.50		280.15E-03
			-82.00		305.40E-03
			-81.50		329.12E-03
			-81.00		352.84E-03
			-80.50		372.31E-03
			-80.00		391.78E-03
			-79.50		405.32E-03
			-79.00		418.86E-03
			-78.50		427.90E-03
			-78.00		436.94E-03
			-77.50		442.92E-03
			-77.00		448.89E-03
			-76.50		452.64E-03
			-76.00		456.39E-03
			-75.50		459.58E-03
			-75.00		462.77E-03
			-74.50		465.50E-03
			-74.00		468.23E-03
			-73.50		470.63E-03
			-73.00		473.04E-03
			-72.50		475.28E-03
			-72.00		477.52E-03
			-71.50		479.54E-03
			-71.00		481.57E-03
			-70.50		483.38E-03
			-70.00		485.20E-03
			-69.50		486.93E-03
			-69.00		488.67E-03
			-68.50		490.37E-03
			-68.00		492.07E-03
			-67.50		493.66E-03
			-67.00		495.26E-03
			-66.50		496.78E-03
			-66.00		498.31E-03
			-65.50		499.84E-03
			-65.00		501.37E-03
			-64.50		502.88E-03
			-64.00		504.40E-03
			-63.50		505.84E-03
			-63.00		507.28E-03
			-62.50		508.70E-03
			-62.00		510.11E-03
			-61.50		511.61E-03
			-61.00		513.10E-03
			-60.50		514.69E-03
			-60.00		516.27E-03
			-59.50		517.74E-03
			-59.00		519.21E-03
			-58.50		520.46E-03
			-58.00		521.70E-03
			-57.50		522.92E-03
			-57.00		524.14E-03
			-56.50		525.47E-03
			-56.00		526.80E-03
			-55.50		528.11E-03
			-55.00		529.43E-03
			-54.50		530.63E-03
			-54.00		531.83E-03
			-53.50		532.97E-03
			-53.00		534.11E-03
			-52.50		535.29E-03
			-52.00		536.47E-03
			-51.50		537.69E-03
			-51.00		538.90E-03
			-50.50		540.09E-03
			-50.00		541.28E-03
			-49.50		542.45E-03
			-49.00		543.62E-03
			-48.50		544.79E-03
			-48.00		545.96E-03
			-47.50		547.11E-03
			-47.00		548.27E-03
			-46.50		549.32E-03
			-46.00		550.38E-03
			-45.50		551.33E-03
			-45.00		552.29E-03
			-44.50		553.33E-03
			-44.00		554.37E-03
			-43.50		555.58E-03
			-43.00		556.79E-03
			-42.50		558.04E-03
			-42.00		559.29E-03
			-41.50		560.41E-03
			-41.00		561.52E-03
			-40.50		562.53E-03
			-40.00		563.54E-03
			-39.50		564.51E-03
			-39.00		565.48E-03
			-38.50		566.43E-03
			-38.00		567.39E-03
			-37.50		568.34E-03
			-37.00		569.28E-03
			-36.50		570.21E-03
			-36.00		571.15E-03
			-35.50		572.10E-03
			-35.00		573.06E-03
			-34.50		574.03E-03
			-34.00		575.00E-03
			-33.50		575.89E-03
			-33.00		576.79E-03
			-32.50		577.52E-03
			-32.00		578.25E-03
			-31.50		578.88E-03
			-31.00		579.50E-03
			-30.50		580.16E-03
			-30.00		580.82E-03
			-29.50		581.55E-03
			-29.00		582.28E-03
			-28.50		583.11E-03
			-28.00		583.94E-03
			-27.50		584.79E-03
			-27.00		585.65E-03
			-26.50		586.40E-03
			-26.00		587.15E-03
			-25.50		587.83E-03
			-25.00		588.52E-03
			-24.50		589.24E-03
			-24.00		589.95E-03
			-23.50		590.64E-03
			-23.00		591.33E-03
			-22.50		591.91E-03
			-22.00		592.49E-03
			-21.50		593.04E-03
			-21.00		593.59E-03
			-20.50		594.23E-03
			-20.00		594.87E-03
			-19.50		595.46E-03
			-19.00		596.06E-03
			-18.50		596.46E-03
			-18.00		596.86E-03
			-17.50		597.23E-03
			-17.00		597.61E-03
			-16.50		598.11E-03
			-16.00		598.61E-03
			-15.50		599.12E-03
			-15.00		599.62E-03
			-14.50		600.09E-03
			-14.00		600.55E-03
			-13.50		601.01E-03
			-13.00		601.47E-03
			-12.50		601.93E-03
			-12.00		602.38E-03
			-11.50		602.73E-03
			-11.00		603.08E-03
			-10.50		603.27E-03
			-10.00		603.46E-03
			-9.50		603.65E-03
			-9.00		603.85E-03
			-8.50		604.16E-03
			-8.00		604.46E-03
			-7.50		604.70E-03
			-7.00		604.95E-03
			-6.50		605.02E-03
			-6.00		605.10E-03
			-5.50		605.12E-03
			-5.00		605.14E-03
			-4.50		605.31E-03
			-4.00		605.48E-03
			-3.50		605.72E-03
			-3.00		605.96E-03
			-2.50		606.03E-03
			-2.00		606.11E-03
			-1.50		606.03E-03
			-1.00		605.96E-03
			-0.50		605.90E-03
			0.00		605.85E-03
			0.50		605.90E-03
			1.00		605.96E-03
			1.50		606.03E-03
			2.00		606.11E-03
			2.50		606.03E-03
			3.00		605.96E-03
			3.50		605.72E-03
			4.00		605.48E-03
			4.50		605.31E-03
			5.00		605.14E-03
			5.50		605.12E-03
			6.00		605.10E-03
			6.50		605.02E-03
			7.00		604.95E-03
			7.50		604.70E-03
			8.00		604.46E-03
			8.50		604.16E-03
			9.00		603.85E-03
			9.50		603.65E-03
			10.00		603.46E-03
			10.50		603.27E-03
			11.00		603.08E-03
			11.50		602.73E-03
			12.00		602.38E-03
			12.50		601.93E-03
			13.00		601.47E-03
			13.50		601.01E-03
			14.00		600.55E-03
			14.50		600.09E-03
			15.00		599.62E-03
			15.50		599.12E-03
			16.00		598.61E-03
			16.50		598.11E-03
			17.00		597.61E-03
			17.50		597.23E-03
			18.00		596.86E-03
			18.50		596.46E-03
			19.00		596.06E-03
			19.50		595.46E-03
			20.00		594.87E-03
			20.50		594.23E-03
			21.00		593.59E-03
			21.50		593.04E-03
			22.00		592.49E-03
			22.50		591.91E-03
			23.00		591.33E-03
			23.50		590.64E-03
			24.00		589.95E-03
			24.50		589.24E-03
			25.00		588.52E-03
			25.50		587.83E-03
			26.00		587.15E-03
			26.50		586.40E-03
			27.00		585.65E-03
			27.50		584.79E-03
			28.00		583.94E-03
			28.50		583.11E-03
			29.00		582.28E-03
			29.50		581.55E-03
			30.00		580.82E-03
			30.50		580.16E-03
			31.00		579.50E-03
			31.50		578.88E-03
			32.00		578.25E-03
			32.50		577.52E-03
			33.00		576.79E-03
			33.50		575.89E-03
			34.00		575.00E-03
			34.50		574.03E-03
			35.00		573.06E-03
			35.50		572.10E-03
			36.00		571.15E-03
			36.50		570.21E-03
			37.00		569.28E-03
			37.50		568.34E-03
			38.00		567.39E-03
			38.50		566.43E-03
			39.00		565.48E-03
			39.50		564.51E-03
			40.00		563.54E-03
			40.50		562.53E-03
			41.00		561.52E-03
			41.50		560.41E-03
			42.00		559.29E-03
			42.50		558.04E-03
			43.00		556.79E-03
			43.50		555.58E-03
			44.00		554.37E-03
			44.50		553.33E-03
			45.00		552.29E-03
			45.50		551.33E-03
			46.00		550.38E-03
			46.50		549.32E-03
			47.00		548.27E-03
			47.50		547.11E-03
			48.00		545.96E-03
			48.50		544.79E-03
			49.00		543.62E-03
			49.50		542.45E-03
			50.00		541.28E-03
			50.50		540.09E-03
			51.00		538.90E-03
			51.50		537.69E-03
			52.00		536.47E-03
			52.50		535.29E-03
			53.00		534.11E-03
			53.50		532.97E-03
			54.00		531.83E-03
			54.50		530.63E-03
			55.00		529.43E-03
			55.50		528.11E-03
			56.00		526.80E-03
			56.50		525.47E-03
			57.00		524.14E-03
			57.50		522.92E-03
			58.00		521.70E-03
			58.50		520.46E-03
			59.00		519.21E-03
			59.50		517.74E-03
			60.00		516.27E-03
			60.50		514.69E-03
			61.00		513.10E-03
			61.50		511.61E-03
			62.00		510.11E-03
			62.50		508.70E-03
			63.00		507.28E-03
			63.50		505.84E-03
			64.00		504.40E-03
			64.50		502.88E-03
			65.00		501.37E-03
			65.50		499.84E-03
			66.00		498.31E-03
			66.50		496.78E-03
			67.00		495.26E-03
			67.50		493.66E-03
			68.00		492.07E-03
			68.50		490.37E-03
			69.00		488.67E-03
			69.50		486.93E-03
			70.00		485.20E-03
			70.50		483.38E-03
			71.00		481.57E-03
			71.50		479.54E-03
			72.00		477.52E-03
			72.50		475.28E-03
			73.00		473.04E-03
			73.50		470.63E-03
			74.00		468.23E-03
			74.50		465.50E-03
			75.00		462.77E-03
			75.50		459.58E-03
			76.00		456.39E-03
			76.50		452.64E-03
			77.00		448.89E-03
			77.50		442.92E-03
			78.00		436.94E-03
			78.50		427.90E-03
			79.00		418.86E-03
			79.50		405.32E-03
			80.00		391.78E-03
			80.50		372.31E-03
			81.00		352.84E-03
			81.50		329.12E-03
			82.00		305.40E-03
			82.50		280.15E-03
			83.00		254.90E-03
			83.50		230.61E-03
			84.00		206.31E-03
			84.50		186.53E-03
			85.00		166.75E-03
			85.50		152.76E-03
			86.00		138.77E-03
			86.50		129.93E-03
			87.00		121.10E-03
			87.50		115.67E-03
			88.00		110.23E-03
			88.50		106.81E-03
			89.00		103.40E-03
			89.50		100.69E-03
			90.00		97.987E-03
			90.50		96.056E-03
			91.00		94.124E-03
			91.50		92.496E-03
			92.00		90.869E-03
			92.50		89.471E-03
			93.00		88.072E-03
			93.50		86.711E-03
			94.00		85.350E-03
			94.50		84.145E-03
			95.00		82.940E-03
			95.50		81.815E-03
			96.00		80.691E-03
			96.50		79.597E-03
			97.00		78.502E-03
			97.50		77.454E-03
			98.00		76.406E-03
			98.50		75.585E-03
			99.00		74.763E-03
			99.50		74.024E-03
			100.00		73.284E-03
			100.50		72.420E-03
			101.00		71.555E-03
			101.50		70.776E-03
			102.00		69.997E-03
			102.50		69.210E-03
			103.00		68.422E-03
			103.50		67.561E-03
			104.00		66.700E-03
			104.50		66.064E-03
			105.00		65.429E-03
			105.50		64.780E-03
			106.00		64.131E-03
			106.50		63.449E-03
			107.00		62.767E-03
			107.50		61.861E-03
			108.00		60.955E-03
			108.50		60.457E-03
			109.00		59.960E-03
			109.50		59.330E-03
			110.00		58.699E-03
			110.50		58.044E-03
			111.00		57.389E-03
			111.50		56.718E-03
			112.00		56.048E-03
			112.50		55.524E-03
			113.00		55.000E-03
			113.50		54.436E-03
			114.00		53.873E-03
			114.50		53.300E-03
			115.00		52.728E-03
			115.50		52.148E-03
			116.00		51.569E-03
			116.50		51.070E-03
			117.00		50.571E-03
			117.50		50.105E-03
			118.00		49.640E-03
			118.50		49.057E-03
			119.00		48.473E-03
			119.50		48.146E-03
			120.00		47.819E-03
			120.50		47.319E-03
			121.00		46.819E-03
		END_DATA
	END_SCAN  4
	BEGIN_SCAN  5
		TASK_NAME=tba PDD Profiles
		PROGRAM=WaterTankScans
		COMMENT=PDD + 5x X
		MEAS_DATE=09-Feb-2021 16:16:49
		LINAC=TRUEBEAMSN4791
		MODALITY=X
		ISOCENTER=1000.00
		INPLANE_AXIS=Y
		CROSSPLANE_AXIS=X
		DEPTH_AXIS=Depth
		INPLANE_AXIS_DIR=TARGET_GUN
		CROSSPLANE_AXIS_DIR=LEFT_RIGHT
		DEPTH_AXIS_DIR=UP_DOWN
		ENERGY=6.00
		NOMINAL_DMAX=15.00
		SSD=900.00
		SCD=450.00
		WEDGE_ANGLE=0.00
		FIELD_INPLANE=150.00
		FIELD_CROSSPLANE=150.00
		FIELD_TYPE=RECTANGULAR
		GANTRY=0.00
		GANTRY_UPRIGHT_POSITION=0
		GANTRY_ROTATION=CW
		COLL_ANGLE=0.00
		COLL_OFFSET_INPLANE=0.00
		COLL_OFFSET_CROSSPLANE=0.00
		SCAN_DEVICE=BeamScan
		SCAN_DEVICE_SETUP=BARA_LEFT_RIGHT
		ELECTROMETER=BeamScan
		RANGE_FIELD=LOW
		RANGE_REFERENCE=MEDIUM
		DETECTOR=THIMBLE_CHAMBER
		DETECTOR_SUBCODE=SEMIFLEX
		DETECTOR_RADIUS=2.40
		DETECTOR_NAME=PTW 31021 Semiflex 3D (1)
		DETECTOR_SN=142316
		DETECTOR_CALIBRATION=588000000.00
		DETECTOR_IS_CALIBRATED=1
		DETECTOR_REFERENCE=THIMBLE_CHAMBER
		DETECTOR_REFERENCE_SUBCODE=SEMIFLEX
		DETECTOR_REFERENCE_RADIUS=2.75
		DETECTOR_REFERENCE_NAME=PTW 31010 Semiflex (1)
		DETECTOR_REFERENCE_SN=ÃƒÆ’Ã‚Â¢ÃƒÂ¢Ã¢â‚¬Å¡Ã‚Â¬ÃƒÂ¢Ã¢â€šÂ¬
		DETECTOR_REFERENCE_IS_CALIBRATED=0
		DETECTOR_REFERENCE_CALIBRATION=303000000.00
		DETECTOR_HV=400.0
		DETECTOR_REFERENCE_HV=400.0
		DETECTOR_ORIENTATION=HORIZONTAL
		FILTER=FFF
		SCAN_SPEED_PROFILE=12.50
		SCAN_PROF_SPEED_DEP=DEPTH
		SCAN_SPEED_PDD=12.50
		SCAN_PDD_SPEED_DEP=ENERGY
		DETECTOR_TYPE=T31021
		REF_FIELD_DEPTH=100.00
		REF_FIELD_DEFINED=ISOCENTER
		REF_FIELD_INPLANE=100.00
		REF_FIELD_CROSSPLANE=100.00
		REF_SCAN_POSITIONS=-85.00;-84.00;-83.00;-82.00;-81.00;-80.00;-79.00;-78.00;-77.00;-76.00;-75.00;-74.00;-73.00;-72.00;-71.00;-70.00;-69.00;-68.00;-67.00;-66.00;-65.00;-64.00;-63.00;-62.00;-61.00;-60.00;-59.00;-58.00;-57.00;-56.00;-55.00;-54.00;-53.00;-52.00;-51.00;-50.00;-49.00;-48.00;-47.00;-46.00;-45.00;-44.00;-43.00;-42.00;-41.00;-40.00;-39.00;-38.00;-37.00;-36.00;-35.00;-34.00;-33.00;-32.00;-31.00;-30.00;-29.00;-28.00;-27.00;-26.00;-25.00;-24.00;-23.00;-22.00;-21.00;-20.00;-19.00;-18.00;-17.00;-16.00;-15.00;-14.00;-13.00;-12.00;-11.00;-10.00;-9.00;-8.00;-7.00;-6.00;-5.00;-4.00;-3.00;-2.00;-1.00;0.00;1.00;2.00;3.00;4.00;5.00;6.00;7.00;8.00;9.00;10.00;11.00;12.00;13.00;14.00;15.00;16.00;17.00;18.00;19.00;20.00;21.00;22.00;23.00;24.00;25.00;26.00;27.00;28.00;29.00;30.00;31.00;32.00;33.00;34.00;35.00;36.00;37.00;38.00;39.00;40.00;41.00;42.00;43.00;44.00;45.00;46.00;47.00;48.00;49.00;50.00;51.00;52.00;53.00;54.00;55.00;56.00;57.00;58.00;59.00;60.00;61.00;62.00;63.00;64.00;65.00;66.00;67.00;68.00;69.00;70.00;71.00;72.00;73.00;74.00;75.00;76.00;77.00;78.00;79.00;80.00;81.00;82.00;83.00;84.00;85.00;
		REF_OVERSCAN_FACTOR=1.00
		SCAN_CURVETYPE=CROSSPLANE_PROFILE
		SCAN_DEPTH=300.00
		SCAN_OFFAXIS_INPLANE=0.00
		SCAN_OFFAXIS_CROSSPLANE=0.00
		SCAN_ANGLE=0.00
		SCAN_DIAGONAL=NOT_DIAGONAL
		SCAN_DIRECTION=POSITIVE
		MEAS_MEDIUM=WATER
		MEAS_PRESET=MEAS_CONTINUOUS_REFERENCE_SCAN
		MEAS_TIME=0.080
		MEAS_UNIT=A.U.
		INCLINATION_ANGLE=0.00
		PRESSURE=1013.25
		TEMPERATURE=20.00
		NORM_TEMPERATURE=20.00
		CORRECTION_FACTOR=1.0000
		EXPECTED_MAX_DOSE_RATE=3.00
		EPOM_DEPTH_SHIFT=0.2
		EPOM_MODE=SHIFT_PROTOCOL
		CORRECTIONS=SMOOTHED_CORR;SYMMETRY_CORR;INTERPOLATED_CORR;
		BEGIN_DATA
			-132.00		32.254E-03
			-131.50		32.629E-03
			-131.00		33.005E-03
			-130.50		33.276E-03
			-130.00		33.547E-03
			-129.50		33.871E-03
			-129.00		34.195E-03
			-128.50		34.495E-03
			-128.00		34.796E-03
			-127.50		35.062E-03
			-127.00		35.328E-03
			-126.50		35.478E-03
			-126.00		35.628E-03
			-125.50		36.017E-03
			-125.00		36.406E-03
			-124.50		36.780E-03
			-124.00		37.155E-03
			-123.50		37.549E-03
			-123.00		37.944E-03
			-122.50		38.225E-03
			-122.00		38.506E-03
			-121.50		38.810E-03
			-121.00		39.115E-03
			-120.50		39.373E-03
			-120.00		39.630E-03
			-119.50		40.059E-03
			-119.00		40.489E-03
			-118.50		40.998E-03
			-118.00		41.508E-03
			-117.50		41.703E-03
			-117.00		41.897E-03
			-116.50		42.395E-03
			-116.00		42.894E-03
			-115.50		43.221E-03
			-115.00		43.549E-03
			-114.50		44.064E-03
			-114.00		44.578E-03
			-113.50		44.962E-03
			-113.00		45.345E-03
			-112.50		45.684E-03
			-112.00		46.023E-03
			-111.50		46.589E-03
			-111.00		47.155E-03
			-110.50		47.428E-03
			-110.00		47.702E-03
			-109.50		48.154E-03
			-109.00		48.607E-03
			-108.50		49.140E-03
			-108.00		49.674E-03
			-107.50		50.232E-03
			-107.00		50.790E-03
			-106.50		51.211E-03
			-106.00		51.633E-03
			-105.50		52.116E-03
			-105.00		52.600E-03
			-104.50		53.335E-03
			-104.00		54.070E-03
			-103.50		54.625E-03
			-103.00		55.181E-03
			-102.50		55.666E-03
			-102.00		56.152E-03
			-101.50		56.922E-03
			-101.00		57.692E-03
			-100.50		58.454E-03
			-100.00		59.217E-03
			-99.50		60.077E-03
			-99.00		60.938E-03
			-98.50		61.998E-03
			-98.00		63.058E-03
			-97.50		64.345E-03
			-97.00		65.632E-03
			-96.50		67.331E-03
			-96.00		69.030E-03
			-95.50		71.501E-03
			-95.00		73.972E-03
			-94.50		77.943E-03
			-94.00		81.913E-03
			-93.50		87.770E-03
			-93.00		93.627E-03
			-92.50		102.49E-03
			-92.00		111.36E-03
			-91.50		122.41E-03
			-91.00		133.47E-03
			-90.50		145.96E-03
			-90.00		158.45E-03
			-89.50		170.68E-03
			-89.00		182.91E-03
			-88.50		194.05E-03
			-88.00		205.20E-03
			-87.50		213.77E-03
			-87.00		222.34E-03
			-86.50		228.33E-03
			-86.00		234.32E-03
			-85.50		238.12E-03
			-85.00		241.93E-03
			-84.50		244.85E-03
			-84.00		247.76E-03
			-83.50		249.66E-03
			-83.00		251.56E-03
			-82.50		253.10E-03
			-82.00		254.64E-03
			-81.50		256.07E-03
			-81.00		257.49E-03
			-80.50		258.74E-03
			-80.00		259.99E-03
			-79.50		261.04E-03
			-79.00		262.09E-03
			-78.50		263.06E-03
			-78.00		264.03E-03
			-77.50		265.00E-03
			-77.00		265.96E-03
			-76.50		266.88E-03
			-76.00		267.80E-03
			-75.50		268.70E-03
			-75.00		269.60E-03
			-74.50		270.48E-03
			-74.00		271.37E-03
			-73.50		272.20E-03
			-73.00		273.03E-03
			-72.50		273.85E-03
			-72.00		274.67E-03
			-71.50		275.55E-03
			-71.00		276.42E-03
			-70.50		277.31E-03
			-70.00		278.19E-03
			-69.50		279.00E-03
			-69.00		279.81E-03
			-68.50		280.54E-03
			-68.00		281.28E-03
			-67.50		281.98E-03
			-67.00		282.67E-03
			-66.50		283.38E-03
			-66.00		284.09E-03
			-65.50		284.87E-03
			-65.00		285.65E-03
			-64.50		286.40E-03
			-64.00		287.14E-03
			-63.50		287.78E-03
			-63.00		288.42E-03
			-62.50		289.03E-03
			-62.00		289.64E-03
			-61.50		290.29E-03
			-61.00		290.94E-03
			-60.50		291.62E-03
			-60.00		292.29E-03
			-59.50		292.97E-03
			-59.00		293.65E-03
			-58.50		294.28E-03
			-58.00		294.91E-03
			-57.50		295.55E-03
			-57.00		296.18E-03
			-56.50		296.88E-03
			-56.00		297.57E-03
			-55.50		298.30E-03
			-55.00		299.03E-03
			-54.50		299.68E-03
			-54.00		300.33E-03
			-53.50		300.92E-03
			-53.00		301.50E-03
			-52.50		302.06E-03
			-52.00		302.61E-03
			-51.50		303.16E-03
			-51.00		303.70E-03
			-50.50		304.28E-03
			-50.00		304.87E-03
			-49.50		305.44E-03
			-49.00		306.00E-03
			-48.50		306.51E-03
			-48.00		307.02E-03
			-47.50		307.52E-03
			-47.00		308.01E-03
			-46.50		308.53E-03
			-46.00		309.04E-03
			-45.50		309.60E-03
			-45.00		310.16E-03
			-44.50		310.75E-03
			-44.00		311.34E-03
			-43.50		311.89E-03
			-43.00		312.44E-03
			-42.50		312.90E-03
			-42.00		313.36E-03
			-41.50		313.81E-03
			-41.00		314.27E-03
			-40.50		314.77E-03
			-40.00		315.27E-03
			-39.50		315.77E-03
			-39.00		316.27E-03
			-38.50		316.75E-03
			-38.00		317.23E-03
			-37.50		317.71E-03
			-37.00		318.20E-03
			-36.50		318.69E-03
			-36.00		319.18E-03
			-35.50		319.67E-03
			-35.00		320.16E-03
			-34.50		320.63E-03
			-34.00		321.09E-03
			-33.50		321.46E-03
			-33.00		321.83E-03
			-32.50		322.14E-03
			-32.00		322.44E-03
			-31.50		322.80E-03
			-31.00		323.15E-03
			-30.50		323.56E-03
			-30.00		323.97E-03
			-29.50		324.40E-03
			-29.00		324.82E-03
			-28.50		325.26E-03
			-28.00		325.69E-03
			-27.50		326.13E-03
			-27.00		326.57E-03
			-26.50		326.93E-03
			-26.00		327.30E-03
			-25.50		327.58E-03
			-25.00		327.85E-03
			-24.50		328.10E-03
			-24.00		328.35E-03
			-23.50		328.59E-03
			-23.00		328.84E-03
			-22.50		329.09E-03
			-22.00		329.34E-03
			-21.50		329.63E-03
			-21.00		329.91E-03
			-20.50		330.21E-03
			-20.00		330.50E-03
			-19.50		330.79E-03
			-19.00		331.09E-03
			-18.50		331.40E-03
			-18.00		331.70E-03
			-17.50		331.98E-03
			-17.00		332.26E-03
			-16.50		332.47E-03
			-16.00		332.68E-03
			-15.50		332.81E-03
			-15.00		332.94E-03
			-14.50		333.07E-03
			-14.00		333.20E-03
			-13.50		333.37E-03
			-13.00		333.54E-03
			-12.50		333.75E-03
			-12.00		333.96E-03
			-11.50		334.19E-03
			-11.00		334.41E-03
			-10.50		334.60E-03
			-10.00		334.79E-03
			-9.50		334.92E-03
			-9.00		335.06E-03
			-8.50		335.16E-03
			-8.00		335.27E-03
			-7.50		335.35E-03
			-7.00		335.44E-03
			-6.50		335.52E-03
			-6.00		335.59E-03
			-5.50		335.64E-03
			-5.00		335.69E-03
			-4.50		335.69E-03
			-4.00		335.70E-03
			-3.50		335.70E-03
			-3.00		335.71E-03
			-2.50		335.75E-03
			-2.00		335.79E-03
			-1.50		335.85E-03
			-1.00		335.91E-03
			-0.50		335.93E-03
			0.00		335.95E-03
			0.50		335.93E-03
			1.00		335.91E-03
			1.50		335.85E-03
			2.00		335.79E-03
			2.50		335.75E-03
			3.00		335.71E-03
			3.50		335.70E-03
			4.00		335.70E-03
			4.50		335.69E-03
			5.00		335.69E-03
			5.50		335.64E-03
			6.00		335.59E-03
			6.50		335.52E-03
			7.00		335.44E-03
			7.50		335.35E-03
			8.00		335.27E-03
			8.50		335.16E-03
			9.00		335.06E-03
			9.50		334.92E-03
			10.00		334.79E-03
			10.50		334.60E-03
			11.00		334.41E-03
			11.50		334.19E-03
			12.00		333.96E-03
			12.50		333.75E-03
			13.00		333.54E-03
			13.50		333.37E-03
			14.00		333.20E-03
			14.50		333.07E-03
			15.00		332.94E-03
			15.50		332.81E-03
			16.00		332.68E-03
			16.50		332.47E-03
			17.00		332.26E-03
			17.50		331.98E-03
			18.00		331.70E-03
			18.50		331.40E-03
			19.00		331.09E-03
			19.50		330.79E-03
			20.00		330.50E-03
			20.50		330.21E-03
			21.00		329.91E-03
			21.50		329.63E-03
			22.00		329.34E-03
			22.50		329.09E-03
			23.00		328.84E-03
			23.50		328.59E-03
			24.00		328.35E-03
			24.50		328.10E-03
			25.00		327.85E-03
			25.50		327.58E-03
			26.00		327.30E-03
			26.50		326.93E-03
			27.00		326.57E-03
			27.50		326.13E-03
			28.00		325.69E-03
			28.50		325.26E-03
			29.00		324.82E-03
			29.50		324.40E-03
			30.00		323.97E-03
			30.50		323.56E-03
			31.00		323.15E-03
			31.50		322.80E-03
			32.00		322.44E-03
			32.50		322.14E-03
			33.00		321.83E-03
			33.50		321.46E-03
			34.00		321.09E-03
			34.50		320.63E-03
			35.00		320.16E-03
			35.50		319.67E-03
			36.00		319.18E-03
			36.50		318.69E-03
			37.00		318.20E-03
			37.50		317.71E-03
			38.00		317.23E-03
			38.50		316.75E-03
			39.00		316.27E-03
			39.50		315.77E-03
			40.00		315.27E-03
			40.50		314.77E-03
			41.00		314.27E-03
			41.50		313.81E-03
			42.00		313.36E-03
			42.50		312.90E-03
			43.00		312.44E-03
			43.50		311.89E-03
			44.00		311.34E-03
			44.50		310.75E-03
			45.00		310.16E-03
			45.50		309.60E-03
			46.00		309.04E-03
			46.50		308.53E-03
			47.00		308.01E-03
			47.50		307.52E-03
			48.00		307.02E-03
			48.50		306.51E-03
			49.00		306.00E-03
			49.50		305.44E-03
			50.00		304.87E-03
			50.50		304.28E-03
			51.00		303.70E-03
			51.50		303.16E-03
			52.00		302.61E-03
			52.50		302.06E-03
			53.00		301.50E-03
			53.50		300.92E-03
			54.00		300.33E-03
			54.50		299.68E-03
			55.00		299.03E-03
			55.50		298.30E-03
			56.00		297.57E-03
			56.50		296.88E-03
			57.00		296.18E-03
			57.50		295.55E-03
			58.00		294.91E-03
			58.50		294.28E-03
			59.00		293.65E-03
			59.50		292.97E-03
			60.00		292.29E-03
			60.50		291.62E-03
			61.00		290.94E-03
			61.50		290.29E-03
			62.00		289.64E-03
			62.50		289.03E-03
			63.00		288.42E-03
			63.50		287.78E-03
			64.00		287.14E-03
			64.50		286.40E-03
			65.00		285.65E-03
			65.50		284.87E-03
			66.00		284.09E-03
			66.50		283.38E-03
			67.00		282.67E-03
			67.50		281.98E-03
			68.00		281.28E-03
			68.50		280.54E-03
			69.00		279.81E-03
			69.50		279.00E-03
			70.00		278.19E-03
			70.50		277.31E-03
			71.00		276.42E-03
			71.50		275.55E-03
			72.00		274.67E-03
			72.50		273.85E-03
			73.00		273.03E-03
			73.50		272.20E-03
			74.00		271.37E-03
			74.50		270.48E-03
			75.00		269.60E-03
			75.50		268.70E-03
			76.00		267.80E-03
			76.50		266.88E-03
			77.00		265.96E-03
			77.50		265.00E-03
			78.00		264.03E-03
			78.50		263.06E-03
			79.00		262.09E-03
			79.50		261.04E-03
			80.00		259.99E-03
			80.50		258.74E-03
			81.00		257.49E-03
			81.50		256.07E-03
			82.00		254.64E-03
			82.50		253.10E-03
			83.00		251.56E-03
			83.50		249.66E-03
			84.00		247.76E-03
			84.50		244.85E-03
			85.00		241.93E-03
			85.50		238.12E-03
			86.00		234.32E-03
			86.50		228.33E-03
			87.00		222.34E-03
			87.50		213.77E-03
			88.00		205.20E-03
			88.50		194.05E-03
			89.00		182.91E-03
			89.50		170.68E-03
			90.00		158.45E-03
			90.50		145.96E-03
			91.00		133.47E-03
			91.50		122.41E-03
			92.00		111.36E-03
			92.50		102.49E-03
			93.00		93.627E-03
			93.50		87.770E-03
			94.00		81.913E-03
			94.50		77.943E-03
			95.00		73.972E-03
			95.50		71.501E-03
			96.00		69.030E-03
			96.50		67.331E-03
			97.00		65.632E-03
			97.50		64.345E-03
			98.00		63.058E-03
			98.50		61.998E-03
			99.00		60.938E-03
			99.50		60.077E-03
			100.00		59.217E-03
			100.50		58.454E-03
			101.00		57.692E-03
			101.50		56.922E-03
			102.00		56.152E-03
			102.50		55.666E-03
			103.00		55.181E-03
			103.50		54.625E-03
			104.00		54.070E-03
			104.50		53.335E-03
			105.00		52.600E-03
			105.50		52.116E-03
			106.00		51.633E-03
			106.50		51.211E-03
			107.00		50.790E-03
			107.50		50.232E-03
			108.00		49.674E-03
			108.50		49.140E-03
			109.00		48.607E-03
			109.50		48.154E-03
			110.00		47.702E-03
			110.50		47.428E-03
			111.00		47.155E-03
			111.50		46.589E-03
			112.00		46.023E-03
			112.50		45.684E-03
			113.00		45.345E-03
			113.50		44.962E-03
			114.00		44.578E-03
			114.50		44.064E-03
			115.00		43.549E-03
			115.50		43.221E-03
			116.00		42.894E-03
			116.50		42.395E-03
			117.00		41.897E-03
			117.50		41.703E-03
			118.00		41.508E-03
			118.50		40.998E-03
			119.00		40.489E-03
			119.50		40.059E-03
			120.00		39.630E-03
			120.50		39.373E-03
			121.00		39.115E-03
			121.50		38.810E-03
			122.00		38.506E-03
			122.50		38.225E-03
			123.00		37.944E-03
			123.50		37.549E-03
			124.00		37.155E-03
			124.50		36.780E-03
			125.00		36.406E-03
			125.50		36.017E-03
			126.00		35.628E-03
			126.50		35.478E-03
			127.00		35.328E-03
			127.50		35.062E-03
			128.00		34.796E-03
			128.50		34.495E-03
			129.00		34.195E-03
			129.50		33.871E-03
			130.00		33.547E-03
			130.50		33.276E-03
			131.00		33.005E-03
			131.50		32.629E-03
			132.00		32.254E-03
		END_DATA
	END_SCAN  5
END_SCAN_DATA
