BEGIN_SCAN_DATA
	FORMAT=CC-Export V1.9                  
	FILE_CREATION_DATE=17-Oct-2022 15:38:49
	LAST_MODIFIED=17-Oct-2022 15:38:49
	BEGIN_SCAN  1
		TASK_NAME=tba PDD Profiles
		PROGRAM=WaterTankScans
		COMMENT=FBF_SanPietro
		MEAS_DATE=08-Feb-2021 09:38:10
		LINAC=MRIdian
		MODALITY=X
		ISOCENTER=900.00
		INPLANE_AXIS=Y
		CROSSPLANE_AXIS=X
		DEPTH_AXIS=Depth
		INPLANE_AXIS_DIR=TARGET_GUN
		CROSSPLANE_AXIS_DIR=LEFT_RIGHT
		DEPTH_AXIS_DIR=UP_DOWN
		ENERGY=6.00
		NOMINAL_DMAX=15.00
		SSD=850.00
		SCD=450.00
		WEDGE_ANGLE=0.00
		FIELD_INPLANE=99.60
		FIELD_CROSSPLANE=99.60
		FIELD_TYPE=RECTANGULAR
		GANTRY=0.00
		GANTRY_UPRIGHT_POSITION=0
		GANTRY_ROTATION=CW
		COLL_ANGLE=0.00
		COLL_OFFSET_INPLANE=0.00
		COLL_OFFSET_CROSSPLANE=0.00
		SCAN_DEVICE=BeamScan
		SCAN_DEVICE_SETUP=BARA_LEFT_RIGHT
		ELECTROMETER=BeamScan
		RANGE_FIELD=LOW
		RANGE_REFERENCE=MEDIUM
		DETECTOR=THIMBLE_CHAMBER
		DETECTOR_RADIUS=2.40
		DETECTOR_NAME=A28MR
		DETECTOR_SN=-
		DETECTOR_CALIBRATION=588000000.00
		DETECTOR_IS_CALIBRATED=0
		DETECTOR_REFERENCE=THIMBLE_CHAMBER
		DETECTOR_REFERENCE_RADIUS=2.75
		DETECTOR_REFERENCE_NAME=A28MR
		DETECTOR_REFERENCE_SN=â€”
		DETECTOR_REFERENCE_IS_CALIBRATED=0
		DETECTOR_REFERENCE_CALIBRATION=303000000.00
		DETECTOR_HV=300.0
		DETECTOR_REFERENCE_HV=300.0
		DETECTOR_ORIENTATION=HORIZONTAL
		FILTER=FFF
		SCAN_SPEED_PROFILE=10.00
		SCAN_PROF_SPEED_DEP=DEPTH
		SCAN_SPEED_PDD=0.00
		SCAN_PDD_SPEED_DEP=ENERGY
		DETECTOR_TYPE=A28MR
		REF_FIELD_DEPTH=220.00
		REF_FIELD_DEFINED=ISOCENTER
		REF_FIELD_INPLANE=100.00
		REF_FIELD_CROSSPLANE=100.00
		REF_SCAN_POSITIONS=-85.00;-84.00;-83.00;-82.00;-81.00;-80.00;-79.00;-78.00;-77.00;-76.00;-75.00;-74.00;-73.00;-72.00;-71.00;-70.00;-69.00;-68.00;-67.00;-66.00;-65.00;-64.00;-63.00;-62.00;-61.00;-60.00;-59.00;-58.00;-57.00;-56.00;-55.00;-54.00;-53.00;-52.00;-51.00;-50.00;-49.00;-48.00;-47.00;-46.00;-45.00;-44.00;-43.00;-42.00;-41.00;-40.00;-39.00;-38.00;-37.00;-36.00;-35.00;-34.00;-33.00;-32.00;-31.00;-30.00;-29.00;-28.00;-27.00;-26.00;-25.00;-24.00;-23.00;-22.00;-21.00;-20.00;-19.00;-18.00;-17.00;-16.00;-15.00;-14.00;-13.00;-12.00;-11.00;-10.00;-9.00;-8.00;-7.00;-6.00;-5.00;-4.00;-3.00;-2.00;-1.00;0.00;1.00;2.00;3.00;4.00;5.00;6.00;7.00;8.00;9.00;10.00;11.00;12.00;13.00;14.00;15.00;16.00;17.00;18.00;19.00;20.00;21.00;22.00;23.00;24.00;25.00;26.00;27.00;28.00;29.00;30.00;31.00;32.00;33.00;34.00;35.00;36.00;37.00;38.00;39.00;40.00;41.00;42.00;43.00;44.00;45.00;46.00;47.00;48.00;49.00;50.00;51.00;52.00;53.00;54.00;55.00;56.00;57.00;58.00;59.00;60.00;61.00;62.00;63.00;64.00;65.00;66.00;67.00;68.00;69.00;70.00;71.00;72.00;73.00;74.00;75.00;76.00;77.00;78.00;79.00;80.00;81.00;82.00;83.00;84.00;85.00;
		REF_OVERSCAN_FACTOR=1.00
		SCAN_CURVETYPE=CROSSPLANE_PROFILE
		SCAN_DEPTH=20.00
		SCAN_OFFAXIS_INPLANE=0.00
		SCAN_OFFAXIS_CROSSPLANE=0.00
		SCAN_ANGLE=0.00
		SCAN_DIAGONAL=NOT_DIAGONAL
		SCAN_DIRECTION=POSITIVE
		MEAS_MEDIUM=WATER
		MEAS_PRESET=MEAS_CONTINUOUS_REFERENCE_SCAN
		MEAS_TIME=0.100
		MEAS_UNIT=A.U.
		INCLINATION_ANGLE=0.00
		PRESSURE=1013.25
		TEMPERATURE=20.00
		NORM_TEMPERATURE=20.00
		CORRECTION_FACTOR=1.0000
		EXPECTED_MAX_DOSE_RATE=3.00
		EPOM_DEPTH_SHIFT=0.2
		EPOM_MODE=SHIFT_PROTOCOL
		CORRECTIONS=CAX_CORR;SMOOTHED_CORR;INTERPOLATED_CORR;
		BEGIN_DATA
			-89.50		6.0695E+00
			-89.00		6.2125E+00
			-88.50		6.2544E+00
			-88.00		6.2645E+00
			-87.50		6.3350E+00
			-87.00		6.4290E+00
			-86.50		6.5032E+00
			-86.00		6.5705E+00
			-85.50		6.6512E+00
			-85.00		6.7371E+00
			-84.50		6.8270E+00
			-84.00		6.9185E+00
			-83.50		6.9755E+00
			-83.00		7.0216E+00
			-82.50		7.1226E+00
			-82.00		7.2451E+00
			-81.50		7.4010E+00
			-81.00		7.5664E+00
			-80.50		7.6417E+00
			-80.00		7.6854E+00
			-79.50		7.7469E+00
			-79.00		7.8145E+00
			-78.50		7.9720E+00
			-78.00		8.1611E+00
			-77.50		8.2429E+00
			-77.00		8.2868E+00
			-76.50		8.4344E+00
			-76.00		8.6147E+00
			-75.50		8.7451E+00
			-75.00		8.8561E+00
			-74.50		8.9643E+00
			-74.00		9.0714E+00
			-73.50		9.2650E+00
			-73.00		9.4859E+00
			-72.50		9.6560E+00
			-72.00		9.8043E+00
			-71.50		10.015E+00
			-71.00		10.247E+00
			-70.50		10.378E+00
			-70.00		10.475E+00
			-69.50		10.644E+00
			-69.00		10.841E+00
			-68.50		11.030E+00
			-68.00		11.216E+00
			-67.50		11.428E+00
			-67.00		11.651E+00
			-66.50		11.874E+00
			-66.00		12.098E+00
			-65.50		12.377E+00
			-65.00		12.677E+00
			-64.50		12.998E+00
			-64.00		13.326E+00
			-63.50		13.669E+00
			-63.00		14.017E+00
			-62.50		14.342E+00
			-62.00		14.658E+00
			-61.50		15.182E+00
			-61.00		15.786E+00
			-60.50		16.410E+00
			-60.00		17.042E+00
			-59.50		17.607E+00
			-59.00		18.147E+00
			-58.50		18.942E+00
			-58.00		19.837E+00
			-57.50		20.920E+00
			-57.00		22.075E+00
			-56.50		23.434E+00
			-56.00		24.872E+00
			-55.50		26.645E+00
			-55.00		28.547E+00
			-54.50		31.096E+00
			-54.00		33.897E+00
			-53.50		37.744E+00
			-53.00		41.998E+00
			-52.50		48.368E+00
			-52.00		55.560E+00
			-51.50		66.540E+00
			-51.00		78.852E+00
			-50.50		95.983E+00
			-50.00		114.99E+00
			-49.50		136.91E+00
			-49.00		159.96E+00
			-48.50		184.61E+00
			-48.00		209.89E+00
			-47.50		235.33E+00
			-47.00		260.84E+00
			-46.50		284.46E+00
			-46.00		307.42E+00
			-45.50		327.87E+00
			-45.00		347.35E+00
			-44.50		363.42E+00
			-44.00		378.41E+00
			-43.50		388.67E+00
			-43.00		397.27E+00
			-42.50		403.45E+00
			-42.00		408.68E+00
			-41.50		412.63E+00
			-41.00		416.04E+00
			-40.50		418.89E+00
			-40.00		421.52E+00
			-39.50		423.51E+00
			-39.00		425.24E+00
			-38.50		426.89E+00
			-38.00		428.50E+00
			-37.50		430.01E+00
			-37.00		431.47E+00
			-36.50		432.86E+00
			-36.00		434.21E+00
			-35.50		435.48E+00
			-35.00		436.71E+00
			-34.50		437.86E+00
			-34.00		438.99E+00
			-33.50		440.09E+00
			-33.00		441.19E+00
			-32.50		442.24E+00
			-32.00		443.27E+00
			-31.50		444.25E+00
			-31.00		445.20E+00
			-30.50		446.17E+00
			-30.00		447.15E+00
			-29.50		448.14E+00
			-29.00		449.13E+00
			-28.50		450.09E+00
			-28.00		451.04E+00
			-27.50		451.98E+00
			-27.00		452.92E+00
			-26.50		453.89E+00
			-26.00		454.88E+00
			-25.50		455.88E+00
			-25.00		456.88E+00
			-24.50		457.77E+00
			-24.00		458.62E+00
			-23.50		459.32E+00
			-23.00		459.98E+00
			-22.50		460.63E+00
			-22.00		461.29E+00
			-21.50		462.00E+00
			-21.00		462.73E+00
			-20.50		463.43E+00
			-20.00		464.11E+00
			-19.50		464.77E+00
			-19.00		465.40E+00
			-18.50		466.08E+00
			-18.00		466.78E+00
			-17.50		467.44E+00
			-17.00		468.09E+00
			-16.50		468.63E+00
			-16.00		469.12E+00
			-15.50		469.56E+00
			-15.00		469.99E+00
			-14.50		470.42E+00
			-14.00		470.85E+00
			-13.50		471.27E+00
			-13.00		471.70E+00
			-12.50		472.14E+00
			-12.00		472.58E+00
			-11.50		473.05E+00
			-11.00		473.53E+00
			-10.50		473.99E+00
			-10.00		474.46E+00
			-9.50		474.88E+00
			-9.00		475.28E+00
			-8.50		475.71E+00
			-8.00		476.15E+00
			-7.50		476.59E+00
			-7.00		477.02E+00
			-6.50		477.28E+00
			-6.00		477.49E+00
			-5.50		477.53E+00
			-5.00		477.52E+00
			-4.50		477.60E+00
			-4.00		477.70E+00
			-3.50		477.93E+00
			-3.00		478.20E+00
			-2.50		478.44E+00
			-2.00		478.67E+00
			-1.50		478.78E+00
			-1.00		478.87E+00
			-0.50		478.90E+00
			0.00		478.92E+00
			0.50		478.91E+00
			1.00		478.89E+00
			1.50		478.77E+00
			2.00		478.61E+00
			2.50		478.26E+00
			3.00		477.83E+00
			3.50		477.32E+00
			4.00		476.78E+00
			4.50		476.40E+00
			5.00		476.08E+00
			5.50		475.91E+00
			6.00		475.79E+00
			6.50		475.58E+00
			7.00		475.32E+00
			7.50		474.97E+00
			8.00		474.57E+00
			8.50		474.26E+00
			9.00		473.98E+00
			9.50		473.75E+00
			10.00		473.55E+00
			10.50		473.28E+00
			11.00		472.98E+00
			11.50		472.62E+00
			12.00		472.25E+00
			12.50		471.91E+00
			13.00		471.60E+00
			13.50		471.29E+00
			14.00		470.98E+00
			14.50		470.50E+00
			15.00		469.96E+00
			15.50		469.27E+00
			16.00		468.53E+00
			16.50		467.84E+00
			17.00		467.18E+00
			17.50		466.66E+00
			18.00		466.17E+00
			18.50		465.73E+00
			19.00		465.29E+00
			19.50		464.77E+00
			20.00		464.22E+00
			20.50		463.54E+00
			21.00		462.81E+00
			21.50		462.00E+00
			22.00		461.17E+00
			22.50		460.34E+00
			23.00		459.52E+00
			23.50		458.65E+00
			24.00		457.77E+00
			24.50		456.85E+00
			25.00		455.91E+00
			25.50		455.04E+00
			26.00		454.19E+00
			26.50		453.38E+00
			27.00		452.57E+00
			27.50		451.73E+00
			28.00		450.89E+00
			28.50		450.03E+00
			29.00		449.17E+00
			29.50		448.32E+00
			30.00		447.48E+00
			30.50		446.59E+00
			31.00		445.69E+00
			31.50		444.71E+00
			32.00		443.69E+00
			32.50		442.62E+00
			33.00		441.53E+00
			33.50		440.37E+00
			34.00		439.18E+00
			34.50		437.84E+00
			35.00		436.45E+00
			35.50		434.95E+00
			36.00		433.42E+00
			36.50		431.86E+00
			37.00		430.28E+00
			37.50		428.60E+00
			38.00		426.87E+00
			38.50		424.98E+00
			39.00		423.01E+00
			39.50		420.95E+00
			40.00		418.85E+00
			40.50		415.93E+00
			41.00		412.70E+00
			41.50		408.61E+00
			42.00		404.19E+00
			42.50		398.20E+00
			43.00		391.72E+00
			43.50		383.01E+00
			44.00		373.44E+00
			44.50		360.23E+00
			45.00		345.88E+00
			45.50		327.22E+00
			46.00		307.04E+00
			46.50		284.05E+00
			47.00		259.96E+00
			47.50		235.05E+00
			48.00		209.87E+00
			48.50		184.62E+00
			49.00		159.35E+00
			49.50		137.01E+00
			50.00		115.61E+00
			50.50		96.976E+00
			51.00		79.415E+00
			51.50		65.596E+00
			52.00		53.232E+00
			52.50		44.720E+00
			53.00		37.562E+00
			53.50		32.871E+00
			54.00		29.238E+00
			54.50		26.907E+00
			55.00		25.034E+00
			55.50		23.569E+00
			56.00		22.261E+00
			56.50		21.194E+00
			57.00		20.229E+00
			57.50		19.494E+00
			58.00		18.832E+00
			58.50		18.205E+00
			59.00		17.591E+00
			59.50		17.049E+00
			60.00		16.528E+00
			60.50		16.074E+00
			61.00		15.648E+00
			61.50		15.268E+00
			62.00		14.903E+00
			62.50		14.504E+00
			63.00		14.092E+00
			63.50		13.773E+00
			64.00		13.494E+00
			64.50		13.232E+00
			65.00		12.976E+00
			65.50		12.717E+00
			66.00		12.458E+00
			66.50		12.207E+00
			67.00		11.958E+00
			67.50		11.724E+00
			68.00		11.495E+00
			68.50		11.291E+00
			69.00		11.096E+00
			69.50		10.866E+00
			70.00		10.623E+00
			70.50		10.442E+00
			71.00		10.283E+00
			71.50		10.066E+00
			72.00		9.8242E+00
			72.50		9.6649E+00
			73.00		9.5317E+00
			73.50		9.3819E+00
			74.00		9.2256E+00
			74.50		9.1020E+00
			75.00		8.9909E+00
			75.50		8.8311E+00
			76.00		8.6505E+00
			76.50		8.5081E+00
			77.00		8.3792E+00
			77.50		8.2930E+00
			78.00		8.2235E+00
			78.50		8.1292E+00
			79.00		8.0244E+00
			79.50		7.9021E+00
			80.00		7.7736E+00
			80.50		7.6580E+00
			81.00		7.5474E+00
			81.50		7.4534E+00
			82.00		7.3652E+00
			82.50		7.2819E+00
			83.00		7.2001E+00
			83.50		7.0677E+00
			84.00		6.9156E+00
			84.50		6.8153E+00
			85.00		6.7351E+00
			85.50		6.6958E+00
			86.00		6.6707E+00
			86.50		6.5850E+00
			87.00		6.4733E+00
			87.50		6.3743E+00
			88.00		6.2802E+00
			88.50		6.2010E+00
			89.00		6.1270E+00
			89.50		6.0705E+00
			90.00		6.0207E+00
		END_DATA
	END_SCAN  1
	BEGIN_SCAN  2
		TASK_NAME=tba PDD Profiles
		PROGRAM=WaterTankScans
		COMMENT=FBF_SanPietro
		MEAS_DATE=08-Feb-2021 09:38:10
		LINAC=MRIdian
		MODALITY=X
		ISOCENTER=900.00
		INPLANE_AXIS=Y
		CROSSPLANE_AXIS=X
		DEPTH_AXIS=Depth
		INPLANE_AXIS_DIR=TARGET_GUN
		CROSSPLANE_AXIS_DIR=LEFT_RIGHT
		DEPTH_AXIS_DIR=UP_DOWN
		ENERGY=6.00
		NOMINAL_DMAX=15.00
		SSD=850.00
		SCD=450.00
		WEDGE_ANGLE=0.00
		FIELD_INPLANE=99.60
		FIELD_CROSSPLANE=99.60
		FIELD_TYPE=RECTANGULAR
		GANTRY=0.00
		GANTRY_UPRIGHT_POSITION=0
		GANTRY_ROTATION=CW
		COLL_ANGLE=0.00
		COLL_OFFSET_INPLANE=0.00
		COLL_OFFSET_CROSSPLANE=0.00
		SCAN_DEVICE=BeamScan
		SCAN_DEVICE_SETUP=BARA_LEFT_RIGHT
		ELECTROMETER=BeamScan
		RANGE_FIELD=LOW
		RANGE_REFERENCE=MEDIUM
		DETECTOR=THIMBLE_CHAMBER
		DETECTOR_RADIUS=2.40
		DETECTOR_NAME=A28MR
		DETECTOR_SN=-
		DETECTOR_CALIBRATION=588000000.00
		DETECTOR_IS_CALIBRATED=0
		DETECTOR_REFERENCE=THIMBLE_CHAMBER
		DETECTOR_REFERENCE_RADIUS=2.75
		DETECTOR_REFERENCE_NAME=A28MR
		DETECTOR_REFERENCE_SN=â€”
		DETECTOR_REFERENCE_IS_CALIBRATED=0
		DETECTOR_REFERENCE_CALIBRATION=303000000.00
		DETECTOR_HV=300.0
		DETECTOR_REFERENCE_HV=300.0
		DETECTOR_ORIENTATION=HORIZONTAL
		FILTER=FFF
		SCAN_SPEED_PROFILE=10.00
		SCAN_PROF_SPEED_DEP=DEPTH
		SCAN_SPEED_PDD=0.00
		SCAN_PDD_SPEED_DEP=ENERGY
		DETECTOR_TYPE=A28MR
		REF_FIELD_DEPTH=220.00
		REF_FIELD_DEFINED=ISOCENTER
		REF_FIELD_INPLANE=100.00
		REF_FIELD_CROSSPLANE=100.00
		REF_SCAN_POSITIONS=-85.00;-84.00;-83.00;-82.00;-81.00;-80.00;-79.00;-78.00;-77.00;-76.00;-75.00;-74.00;-73.00;-72.00;-71.00;-70.00;-69.00;-68.00;-67.00;-66.00;-65.00;-64.00;-63.00;-62.00;-61.00;-60.00;-59.00;-58.00;-57.00;-56.00;-55.00;-54.00;-53.00;-52.00;-51.00;-50.00;-49.00;-48.00;-47.00;-46.00;-45.00;-44.00;-43.00;-42.00;-41.00;-40.00;-39.00;-38.00;-37.00;-36.00;-35.00;-34.00;-33.00;-32.00;-31.00;-30.00;-29.00;-28.00;-27.00;-26.00;-25.00;-24.00;-23.00;-22.00;-21.00;-20.00;-19.00;-18.00;-17.00;-16.00;-15.00;-14.00;-13.00;-12.00;-11.00;-10.00;-9.00;-8.00;-7.00;-6.00;-5.00;-4.00;-3.00;-2.00;-1.00;0.00;1.00;2.00;3.00;4.00;5.00;6.00;7.00;8.00;9.00;10.00;11.00;12.00;13.00;14.00;15.00;16.00;17.00;18.00;19.00;20.00;21.00;22.00;23.00;24.00;25.00;26.00;27.00;28.00;29.00;30.00;31.00;32.00;33.00;34.00;35.00;36.00;37.00;38.00;39.00;40.00;41.00;42.00;43.00;44.00;45.00;46.00;47.00;48.00;49.00;50.00;51.00;52.00;53.00;54.00;55.00;56.00;57.00;58.00;59.00;60.00;61.00;62.00;63.00;64.00;65.00;66.00;67.00;68.00;69.00;70.00;71.00;72.00;73.00;74.00;75.00;76.00;77.00;78.00;79.00;80.00;81.00;82.00;83.00;84.00;85.00;
		REF_OVERSCAN_FACTOR=1.00
		SCAN_CURVETYPE=CROSSPLANE_PROFILE
		SCAN_DEPTH=55.00
		SCAN_OFFAXIS_INPLANE=0.00
		SCAN_OFFAXIS_CROSSPLANE=0.00
		SCAN_ANGLE=0.00
		SCAN_DIAGONAL=NOT_DIAGONAL
		SCAN_DIRECTION=POSITIVE
		MEAS_MEDIUM=WATER
		MEAS_PRESET=MEAS_CONTINUOUS_REFERENCE_SCAN
		MEAS_TIME=0.100
		MEAS_UNIT=A.U.
		INCLINATION_ANGLE=0.00
		PRESSURE=1013.25
		TEMPERATURE=20.00
		NORM_TEMPERATURE=20.00
		CORRECTION_FACTOR=1.0000
		EXPECTED_MAX_DOSE_RATE=3.00
		EPOM_DEPTH_SHIFT=0.2
		EPOM_MODE=SHIFT_PROTOCOL
		CORRECTIONS=CAX_CORR;SMOOTHED_CORR;INTERPOLATED_CORR;
		BEGIN_DATA
			-89.50		8.3366E+00
			-89.00		8.4408E+00
			-88.50		8.5503E+00
			-88.00		8.6619E+00
			-87.50		8.7640E+00
			-87.00		8.8615E+00
			-86.50		8.9986E+00
			-86.00		9.1496E+00
			-85.50		9.2917E+00
			-85.00		9.4296E+00
			-84.50		9.5897E+00
			-84.00		9.7603E+00
			-83.50		9.8808E+00
			-83.00		9.9817E+00
			-82.50		10.080E+00
			-82.00		10.176E+00
			-81.50		10.382E+00
			-81.00		10.634E+00
			-80.50		10.839E+00
			-80.00		11.021E+00
			-79.50		11.183E+00
			-79.00		11.335E+00
			-78.50		11.487E+00
			-78.00		11.639E+00
			-77.50		11.838E+00
			-77.00		12.059E+00
			-76.50		12.273E+00
			-76.00		12.485E+00
			-75.50		12.663E+00
			-75.00		12.825E+00
			-74.50		13.039E+00
			-74.00		13.277E+00
			-73.50		13.596E+00
			-73.00		13.946E+00
			-72.50		14.201E+00
			-72.00		14.415E+00
			-71.50		14.689E+00
			-71.00		14.988E+00
			-70.50		15.262E+00
			-70.00		15.524E+00
			-69.50		15.815E+00
			-69.00		16.120E+00
			-68.50		16.464E+00
			-68.00		16.824E+00
			-67.50		17.157E+00
			-67.00		17.477E+00
			-66.50		17.873E+00
			-66.00		18.299E+00
			-65.50		18.775E+00
			-65.00		19.274E+00
			-64.50		19.748E+00
			-64.00		20.214E+00
			-63.50		20.797E+00
			-63.00		21.435E+00
			-62.50		22.057E+00
			-62.00		22.671E+00
			-61.50		23.386E+00
			-61.00		24.148E+00
			-60.50		24.978E+00
			-60.00		25.839E+00
			-59.50		26.948E+00
			-59.00		28.175E+00
			-58.50		29.466E+00
			-58.00		30.783E+00
			-57.50		32.376E+00
			-57.00		34.099E+00
			-56.50		36.369E+00
			-56.00		38.898E+00
			-55.50		42.218E+00
			-55.00		45.910E+00
			-54.50		51.148E+00
			-54.00		56.986E+00
			-53.50		65.270E+00
			-53.00		74.706E+00
			-52.50		87.504E+00
			-52.00		101.74E+00
			-51.50		118.32E+00
			-51.00		136.00E+00
			-50.50		154.78E+00
			-50.00		174.06E+00
			-49.50		193.09E+00
			-49.00		212.02E+00
			-48.50		230.15E+00
			-48.00		247.90E+00
			-47.50		264.01E+00
			-47.00		279.35E+00
			-46.50		291.80E+00
			-46.00		303.13E+00
			-45.50		311.86E+00
			-45.00		319.37E+00
			-44.50		324.90E+00
			-44.00		329.67E+00
			-43.50		333.43E+00
			-43.00		336.73E+00
			-42.50		339.29E+00
			-42.00		341.47E+00
			-41.50		343.29E+00
			-41.00		344.97E+00
			-40.50		346.55E+00
			-40.00		348.08E+00
			-39.50		349.48E+00
			-39.00		350.82E+00
			-38.50		352.06E+00
			-38.00		353.27E+00
			-37.50		354.44E+00
			-37.00		355.59E+00
			-36.50		356.74E+00
			-36.00		357.89E+00
			-35.50		359.00E+00
			-35.00		360.08E+00
			-34.50		361.10E+00
			-34.00		362.08E+00
			-33.50		363.09E+00
			-33.00		364.10E+00
			-32.50		365.09E+00
			-32.00		366.08E+00
			-31.50		366.98E+00
			-31.00		367.85E+00
			-30.50		368.70E+00
			-30.00		369.54E+00
			-29.50		370.42E+00
			-29.00		371.30E+00
			-28.50		372.15E+00
			-28.00		372.98E+00
			-27.50		373.79E+00
			-27.00		374.60E+00
			-26.50		375.44E+00
			-26.00		376.29E+00
			-25.50		377.11E+00
			-25.00		377.92E+00
			-24.50		378.63E+00
			-24.00		379.30E+00
			-23.50		379.89E+00
			-23.00		380.46E+00
			-22.50		381.01E+00
			-22.00		381.56E+00
			-21.50		382.08E+00
			-21.00		382.60E+00
			-20.50		383.11E+00
			-20.00		383.60E+00
			-19.50		384.11E+00
			-19.00		384.62E+00
			-18.50		385.13E+00
			-18.00		385.65E+00
			-17.50		386.19E+00
			-17.00		386.73E+00
			-16.50		387.33E+00
			-16.00		387.96E+00
			-15.50		388.56E+00
			-15.00		389.17E+00
			-14.50		389.65E+00
			-14.00		390.06E+00
			-13.50		390.42E+00
			-13.00		390.74E+00
			-12.50		391.10E+00
			-12.00		391.48E+00
			-11.50		391.84E+00
			-11.00		392.19E+00
			-10.50		392.45E+00
			-10.00		392.67E+00
			-9.50		392.87E+00
			-9.00		393.05E+00
			-8.50		393.31E+00
			-8.00		393.59E+00
			-7.50		393.89E+00
			-7.00		394.20E+00
			-6.50		394.49E+00
			-6.00		394.76E+00
			-5.50		395.01E+00
			-5.00		395.26E+00
			-4.50		395.45E+00
			-4.00		395.63E+00
			-3.50		395.73E+00
			-3.00		395.80E+00
			-2.50		395.86E+00
			-2.00		395.93E+00
			-1.50		396.05E+00
			-1.00		396.18E+00
			-0.50		396.27E+00
			0.00		396.35E+00
			0.50		396.32E+00
			1.00		396.24E+00
			1.50		396.08E+00
			2.00		395.90E+00
			2.50		395.77E+00
			3.00		395.66E+00
			3.50		395.54E+00
			4.00		395.41E+00
			4.50		395.17E+00
			5.00		394.88E+00
			5.50		394.53E+00
			6.00		394.15E+00
			6.50		393.83E+00
			7.00		393.54E+00
			7.50		393.29E+00
			8.00		393.08E+00
			8.50		392.87E+00
			9.00		392.65E+00
			9.50		392.41E+00
			10.00		392.15E+00
			10.50		391.88E+00
			11.00		391.62E+00
			11.50		391.34E+00
			12.00		391.07E+00
			12.50		390.76E+00
			13.00		390.44E+00
			13.50		390.06E+00
			14.00		389.64E+00
			14.50		389.16E+00
			15.00		388.64E+00
			15.50		388.12E+00
			16.00		387.58E+00
			16.50		387.09E+00
			17.00		386.61E+00
			17.50		386.16E+00
			18.00		385.72E+00
			18.50		385.25E+00
			19.00		384.77E+00
			19.50		384.22E+00
			20.00		383.64E+00
			20.50		383.02E+00
			21.00		382.38E+00
			21.50		381.79E+00
			22.00		381.23E+00
			22.50		380.71E+00
			23.00		380.21E+00
			23.50		379.67E+00
			24.00		379.11E+00
			24.50		378.43E+00
			25.00		377.71E+00
			25.50		376.91E+00
			26.00		376.08E+00
			26.50		375.26E+00
			27.00		374.45E+00
			27.50		373.75E+00
			28.00		373.09E+00
			28.50		372.46E+00
			29.00		371.85E+00
			29.50		371.13E+00
			30.00		370.37E+00
			30.50		369.51E+00
			31.00		368.60E+00
			31.50		367.66E+00
			32.00		366.71E+00
			32.50		365.76E+00
			33.00		364.82E+00
			33.50		363.85E+00
			34.00		362.87E+00
			34.50		361.82E+00
			35.00		360.73E+00
			35.50		359.56E+00
			36.00		358.36E+00
			36.50		357.16E+00
			37.00		355.96E+00
			37.50		354.72E+00
			38.00		353.46E+00
			38.50		352.08E+00
			39.00		350.64E+00
			39.50		349.04E+00
			40.00		347.39E+00
			40.50		345.54E+00
			41.00		343.62E+00
			41.50		341.53E+00
			42.00		339.37E+00
			42.50		336.67E+00
			43.00		333.74E+00
			43.50		330.04E+00
			44.00		325.96E+00
			44.50		321.02E+00
			45.00		315.75E+00
			45.50		308.62E+00
			46.00		300.63E+00
			46.50		290.43E+00
			47.00		279.19E+00
			47.50		264.42E+00
			48.00		248.41E+00
			48.50		230.78E+00
			49.00		212.37E+00
			49.50		193.40E+00
			50.00		174.23E+00
			50.50		155.26E+00
			51.00		136.38E+00
			51.50		119.13E+00
			52.00		102.64E+00
			52.50		88.598E+00
			53.00		75.507E+00
			53.50		64.746E+00
			54.00		55.185E+00
			54.50		48.376E+00
			55.00		42.862E+00
			55.50		38.871E+00
			56.00		35.597E+00
			56.50		33.287E+00
			57.00		31.352E+00
			57.50		29.942E+00
			58.00		28.759E+00
			58.50		27.736E+00
			59.00		26.790E+00
			59.50		25.911E+00
			60.00		25.063E+00
			60.50		24.375E+00
			61.00		23.770E+00
			61.50		23.166E+00
			62.00		22.564E+00
			62.50		22.012E+00
			63.00		21.484E+00
			63.50		20.996E+00
			64.00		20.528E+00
			64.50		20.053E+00
			65.00		19.575E+00
			65.50		19.088E+00
			66.00		18.596E+00
			66.50		18.222E+00
			67.00		17.898E+00
			67.50		17.549E+00
			68.00		17.187E+00
			68.50		16.820E+00
			69.00		16.450E+00
			69.50		16.171E+00
			70.00		15.930E+00
			70.50		15.581E+00
			71.00		15.180E+00
			71.50		14.849E+00
			72.00		14.555E+00
			72.50		14.293E+00
			73.00		14.044E+00
			73.50		13.845E+00
			74.00		13.671E+00
			74.50		13.425E+00
			75.00		13.145E+00
			75.50		12.920E+00
			76.00		12.719E+00
			76.50		12.507E+00
			77.00		12.291E+00
			77.50		12.120E+00
			78.00		11.973E+00
			78.50		11.768E+00
			79.00		11.541E+00
			79.50		11.309E+00
			80.00		11.076E+00
			80.50		10.936E+00
			81.00		10.840E+00
			81.50		10.654E+00
			82.00		10.423E+00
			82.50		10.246E+00
			83.00		10.090E+00
			83.50		9.9562E+00
			84.00		9.8331E+00
			84.50		9.6838E+00
			85.00		9.5211E+00
			85.50		9.3983E+00
			86.00		9.2944E+00
			86.50		9.1577E+00
			87.00		9.0056E+00
			87.50		8.8867E+00
			88.00		8.7819E+00
			88.50		8.6734E+00
			89.00		8.5630E+00
			89.50		8.4433E+00
			90.00		8.3195E+00
		END_DATA
	END_SCAN  2
	BEGIN_SCAN  3
		TASK_NAME=tba PDD Profiles
		PROGRAM=WaterTankScans
		COMMENT=FBF_SanPietro
		MEAS_DATE=08-Feb-2021 09:38:10
		LINAC=MRIdian
		MODALITY=X
		ISOCENTER=900.00
		INPLANE_AXIS=Y
		CROSSPLANE_AXIS=X
		DEPTH_AXIS=Depth
		INPLANE_AXIS_DIR=TARGET_GUN
		CROSSPLANE_AXIS_DIR=LEFT_RIGHT
		DEPTH_AXIS_DIR=UP_DOWN
		ENERGY=6.00
		NOMINAL_DMAX=15.00
		SSD=850.00
		SCD=450.00
		WEDGE_ANGLE=0.00
		FIELD_INPLANE=99.60
		FIELD_CROSSPLANE=99.60
		FIELD_TYPE=RECTANGULAR
		GANTRY=0.00
		GANTRY_UPRIGHT_POSITION=0
		GANTRY_ROTATION=CW
		COLL_ANGLE=0.00
		COLL_OFFSET_INPLANE=0.00
		COLL_OFFSET_CROSSPLANE=0.00
		SCAN_DEVICE=BeamScan
		SCAN_DEVICE_SETUP=BARA_LEFT_RIGHT
		ELECTROMETER=BeamScan
		RANGE_FIELD=LOW
		RANGE_REFERENCE=MEDIUM
		DETECTOR=THIMBLE_CHAMBER
		DETECTOR_RADIUS=2.40
		DETECTOR_NAME=A28MR
		DETECTOR_SN=-
		DETECTOR_CALIBRATION=588000000.00
		DETECTOR_IS_CALIBRATED=0
		DETECTOR_REFERENCE=THIMBLE_CHAMBER
		DETECTOR_REFERENCE_RADIUS=2.75
		DETECTOR_REFERENCE_NAME=A28MR
		DETECTOR_REFERENCE_SN=â€”
		DETECTOR_REFERENCE_IS_CALIBRATED=0
		DETECTOR_REFERENCE_CALIBRATION=303000000.00
		DETECTOR_HV=300.0
		DETECTOR_REFERENCE_HV=300.0
		DETECTOR_ORIENTATION=HORIZONTAL
		FILTER=FFF
		SCAN_SPEED_PROFILE=10.00
		SCAN_PROF_SPEED_DEP=DEPTH
		SCAN_SPEED_PDD=0.00
		SCAN_PDD_SPEED_DEP=ENERGY
		DETECTOR_TYPE=A28MR
		REF_FIELD_DEPTH=220.00
		REF_FIELD_DEFINED=ISOCENTER
		REF_FIELD_INPLANE=100.00
		REF_FIELD_CROSSPLANE=100.00
		REF_SCAN_POSITIONS=-85.00;-84.00;-83.00;-82.00;-81.00;-80.00;-79.00;-78.00;-77.00;-76.00;-75.00;-74.00;-73.00;-72.00;-71.00;-70.00;-69.00;-68.00;-67.00;-66.00;-65.00;-64.00;-63.00;-62.00;-61.00;-60.00;-59.00;-58.00;-57.00;-56.00;-55.00;-54.00;-53.00;-52.00;-51.00;-50.00;-49.00;-48.00;-47.00;-46.00;-45.00;-44.00;-43.00;-42.00;-41.00;-40.00;-39.00;-38.00;-37.00;-36.00;-35.00;-34.00;-33.00;-32.00;-31.00;-30.00;-29.00;-28.00;-27.00;-26.00;-25.00;-24.00;-23.00;-22.00;-21.00;-20.00;-19.00;-18.00;-17.00;-16.00;-15.00;-14.00;-13.00;-12.00;-11.00;-10.00;-9.00;-8.00;-7.00;-6.00;-5.00;-4.00;-3.00;-2.00;-1.00;0.00;1.00;2.00;3.00;4.00;5.00;6.00;7.00;8.00;9.00;10.00;11.00;12.00;13.00;14.00;15.00;16.00;17.00;18.00;19.00;20.00;21.00;22.00;23.00;24.00;25.00;26.00;27.00;28.00;29.00;30.00;31.00;32.00;33.00;34.00;35.00;36.00;37.00;38.00;39.00;40.00;41.00;42.00;43.00;44.00;45.00;46.00;47.00;48.00;49.00;50.00;51.00;52.00;53.00;54.00;55.00;56.00;57.00;58.00;59.00;60.00;61.00;62.00;63.00;64.00;65.00;66.00;67.00;68.00;69.00;70.00;71.00;72.00;73.00;74.00;75.00;76.00;77.00;78.00;79.00;80.00;81.00;82.00;83.00;84.00;85.00;
		REF_OVERSCAN_FACTOR=1.00
		SCAN_CURVETYPE=CROSSPLANE_PROFILE
		SCAN_DEPTH=100.00
		SCAN_OFFAXIS_INPLANE=0.00
		SCAN_OFFAXIS_CROSSPLANE=0.00
		SCAN_ANGLE=0.00
		SCAN_DIAGONAL=NOT_DIAGONAL
		SCAN_DIRECTION=POSITIVE
		MEAS_MEDIUM=WATER
		MEAS_PRESET=MEAS_CONTINUOUS_REFERENCE_SCAN
		MEAS_TIME=0.100
		MEAS_UNIT=A.U.
		INCLINATION_ANGLE=0.00
		PRESSURE=1013.25
		TEMPERATURE=20.00
		NORM_TEMPERATURE=20.00
		CORRECTION_FACTOR=1.0000
		EXPECTED_MAX_DOSE_RATE=3.00
		EPOM_DEPTH_SHIFT=0.2
		EPOM_MODE=SHIFT_PROTOCOL
		CORRECTIONS=CAX_CORR;SMOOTHED_CORR;INTERPOLATED_CORR;
		BEGIN_DATA
			-89.50		10.591E+00
			-89.00		10.770E+00
			-88.50		10.966E+00
			-88.00		11.165E+00
			-87.50		11.329E+00
			-87.00		11.479E+00
			-86.50		11.622E+00
			-86.00		11.762E+00
			-85.50		11.917E+00
			-85.00		12.078E+00
			-84.50		12.306E+00
			-84.00		12.559E+00
			-83.50		12.702E+00
			-83.00		12.811E+00
			-82.50		13.045E+00
			-82.00		13.329E+00
			-81.50		13.464E+00
			-81.00		13.558E+00
			-80.50		13.751E+00
			-80.00		13.979E+00
			-79.50		14.242E+00
			-79.00		14.517E+00
			-78.50		14.752E+00
			-78.00		14.974E+00
			-77.50		15.147E+00
			-77.00		15.301E+00
			-76.50		15.567E+00
			-76.00		15.869E+00
			-75.50		16.138E+00
			-75.00		16.393E+00
			-74.50		16.709E+00
			-74.00		17.042E+00
			-73.50		17.319E+00
			-73.00		17.578E+00
			-72.50		17.879E+00
			-72.00		18.198E+00
			-71.50		18.478E+00
			-71.00		18.746E+00
			-70.50		19.175E+00
			-70.00		19.661E+00
			-69.50		20.031E+00
			-69.00		20.362E+00
			-68.50		20.807E+00
			-68.00		21.297E+00
			-67.50		21.683E+00
			-67.00		22.031E+00
			-66.50		22.502E+00
			-66.00		23.016E+00
			-65.50		23.559E+00
			-65.00		24.114E+00
			-64.50		24.691E+00
			-64.00		25.275E+00
			-63.50		26.001E+00
			-63.00		26.784E+00
			-62.50		27.582E+00
			-62.00		28.385E+00
			-61.50		29.305E+00
			-61.00		30.270E+00
			-60.50		31.454E+00
			-60.00		32.723E+00
			-59.50		34.299E+00
			-59.00		35.983E+00
			-58.50		38.155E+00
			-58.00		40.517E+00
			-57.50		43.718E+00
			-57.00		47.246E+00
			-56.50		52.307E+00
			-56.00		57.802E+00
			-55.50		65.385E+00
			-55.00		73.780E+00
			-54.50		84.208E+00
			-54.00		95.427E+00
			-53.50		107.84E+00
			-53.00		120.72E+00
			-52.50		134.13E+00
			-52.00		147.69E+00
			-51.50		161.09E+00
			-51.00		174.42E+00
			-50.50		186.39E+00
			-50.00		197.84E+00
			-49.50		208.29E+00
			-49.00		218.34E+00
			-48.50		226.20E+00
			-48.00		233.21E+00
			-47.50		238.27E+00
			-47.00		242.57E+00
			-46.50		246.30E+00
			-46.00		249.85E+00
			-45.50		252.53E+00
			-45.00		254.85E+00
			-44.50		256.63E+00
			-44.00		258.24E+00
			-43.50		259.58E+00
			-43.00		260.82E+00
			-42.50		262.03E+00
			-42.00		263.22E+00
			-41.50		264.31E+00
			-41.00		265.36E+00
			-40.50		266.29E+00
			-40.00		267.18E+00
			-39.50		268.04E+00
			-39.00		268.90E+00
			-38.50		269.75E+00
			-38.00		270.61E+00
			-37.50		271.49E+00
			-37.00		272.37E+00
			-36.50		273.24E+00
			-36.00		274.11E+00
			-35.50		274.95E+00
			-35.00		275.77E+00
			-34.50		276.58E+00
			-34.00		277.37E+00
			-33.50		278.12E+00
			-33.00		278.85E+00
			-32.50		279.52E+00
			-32.00		280.16E+00
			-31.50		280.81E+00
			-31.00		281.45E+00
			-30.50		282.12E+00
			-30.00		282.79E+00
			-29.50		283.42E+00
			-29.00		284.04E+00
			-28.50		284.64E+00
			-28.00		285.23E+00
			-27.50		285.87E+00
			-27.00		286.54E+00
			-26.50		287.24E+00
			-26.00		287.95E+00
			-25.50		288.61E+00
			-25.00		289.26E+00
			-24.50		289.83E+00
			-24.00		290.36E+00
			-23.50		290.82E+00
			-23.00		291.26E+00
			-22.50		291.70E+00
			-22.00		292.15E+00
			-21.50		292.61E+00
			-21.00		293.08E+00
			-20.50		293.50E+00
			-20.00		293.91E+00
			-19.50		294.27E+00
			-19.00		294.62E+00
			-18.50		294.99E+00
			-18.00		295.38E+00
			-17.50		295.78E+00
			-17.00		296.19E+00
			-16.50		296.58E+00
			-16.00		296.95E+00
			-15.50		297.28E+00
			-15.00		297.59E+00
			-14.50		297.86E+00
			-14.00		298.12E+00
			-13.50		298.38E+00
			-13.00		298.64E+00
			-12.50		298.95E+00
			-12.00		299.28E+00
			-11.50		299.63E+00
			-11.00		299.99E+00
			-10.50		300.31E+00
			-10.00		300.62E+00
			-9.50		300.85E+00
			-9.00		301.05E+00
			-8.50		301.20E+00
			-8.00		301.34E+00
			-7.50		301.51E+00
			-7.00		301.69E+00
			-6.50		301.91E+00
			-6.00		302.14E+00
			-5.50		302.33E+00
			-5.00		302.52E+00
			-4.50		302.64E+00
			-4.00		302.74E+00
			-3.50		302.80E+00
			-3.00		302.85E+00
			-2.50		302.89E+00
			-2.00		302.91E+00
			-1.50		302.92E+00
			-1.00		302.93E+00
			-0.50		302.92E+00
			0.00		302.90E+00
			0.50		302.86E+00
			1.00		302.83E+00
			1.50		302.77E+00
			2.00		302.69E+00
			2.50		302.55E+00
			3.00		302.39E+00
			3.50		302.20E+00
			4.00		302.00E+00
			4.50		301.86E+00
			5.00		301.72E+00
			5.50		301.61E+00
			6.00		301.51E+00
			6.50		301.38E+00
			7.00		301.25E+00
			7.50		301.07E+00
			8.00		300.89E+00
			8.50		300.63E+00
			9.00		300.35E+00
			9.50		300.06E+00
			10.00		299.77E+00
			10.50		299.56E+00
			11.00		299.38E+00
			11.50		299.23E+00
			12.00		299.10E+00
			12.50		298.87E+00
			13.00		298.61E+00
			13.50		298.30E+00
			14.00		297.96E+00
			14.50		297.66E+00
			15.00		297.36E+00
			15.50		297.07E+00
			16.00		296.78E+00
			16.50		296.46E+00
			17.00		296.12E+00
			17.50		295.74E+00
			18.00		295.34E+00
			18.50		294.88E+00
			19.00		294.41E+00
			19.50		293.96E+00
			20.00		293.51E+00
			20.50		293.12E+00
			21.00		292.75E+00
			21.50		292.38E+00
			22.00		292.01E+00
			22.50		291.62E+00
			23.00		291.23E+00
			23.50		290.81E+00
			24.00		290.38E+00
			24.50		289.86E+00
			25.00		289.31E+00
			25.50		288.70E+00
			26.00		288.07E+00
			26.50		287.49E+00
			27.00		286.92E+00
			27.50		286.35E+00
			28.00		285.80E+00
			28.50		285.16E+00
			29.00		284.51E+00
			29.50		283.83E+00
			30.00		283.15E+00
			30.50		282.53E+00
			31.00		281.94E+00
			31.50		281.35E+00
			32.00		280.76E+00
			32.50		280.04E+00
			33.00		279.28E+00
			33.50		278.46E+00
			34.00		277.62E+00
			34.50		276.83E+00
			35.00		276.06E+00
			35.50		275.32E+00
			36.00		274.59E+00
			36.50		273.83E+00
			37.00		273.05E+00
			37.50		272.20E+00
			38.00		271.32E+00
			38.50		270.35E+00
			39.00		269.33E+00
			39.50		268.24E+00
			40.00		267.12E+00
			40.50		265.99E+00
			41.00		264.86E+00
			41.50		263.68E+00
			42.00		262.48E+00
			42.50		261.16E+00
			43.00		259.81E+00
			43.50		258.37E+00
			44.00		256.90E+00
			44.50		254.83E+00
			45.00		252.56E+00
			45.50		250.02E+00
			46.00		247.39E+00
			46.50		243.85E+00
			47.00		240.02E+00
			47.50		235.52E+00
			48.00		230.82E+00
			48.50		224.11E+00
			49.00		216.62E+00
			49.50		207.60E+00
			50.00		198.10E+00
			50.50		186.63E+00
			51.00		174.32E+00
			51.50		161.24E+00
			52.00		147.84E+00
			52.50		134.26E+00
			53.00		120.62E+00
			53.50		107.69E+00
			54.00		95.050E+00
			54.50		84.039E+00
			55.00		73.541E+00
			55.50		64.771E+00
			56.00		56.673E+00
			56.50		50.604E+00
			57.00		45.175E+00
			57.50		41.279E+00
			58.00		37.980E+00
			58.50		35.653E+00
			59.00		33.743E+00
			59.50		32.302E+00
			60.00		31.044E+00
			60.50		29.974E+00
			61.00		28.985E+00
			61.50		28.253E+00
			62.00		27.632E+00
			62.50		27.008E+00
			63.00		26.382E+00
			63.50		25.761E+00
			64.00		25.143E+00
			64.50		24.618E+00
			65.00		24.127E+00
			65.50		23.652E+00
			66.00		23.183E+00
			66.50		22.719E+00
			67.00		22.257E+00
			67.50		21.839E+00
			68.00		21.440E+00
			68.50		21.071E+00
			69.00		20.713E+00
			69.50		20.284E+00
			70.00		19.828E+00
			70.50		19.456E+00
			71.00		19.118E+00
			71.50		18.808E+00
			72.00		18.511E+00
			72.50		18.138E+00
			73.00		17.741E+00
			73.50		17.483E+00
			74.00		17.285E+00
			74.50		16.995E+00
			75.00		16.666E+00
			75.50		16.349E+00
			76.00		16.037E+00
			76.50		15.815E+00
			77.00		15.624E+00
			77.50		15.420E+00
			78.00		15.211E+00
			78.50		14.976E+00
			79.00		14.729E+00
			79.50		14.486E+00
			80.00		14.245E+00
			80.50		13.981E+00
			81.00		13.709E+00
			81.50		13.487E+00
			82.00		13.284E+00
			82.50		13.128E+00
			83.00		12.990E+00
			83.50		12.810E+00
			84.00		12.613E+00
			84.50		12.415E+00
			85.00		12.217E+00
			85.50		12.062E+00
			86.00		11.924E+00
			86.50		11.764E+00
			87.00		11.596E+00
			87.50		11.441E+00
			88.00		11.292E+00
			88.50		11.134E+00
			89.00		10.974E+00
			89.50		10.802E+00
			90.00		10.627E+00
		END_DATA
	END_SCAN  3
END_SCAN_DATA
